Pitch_X,Roll_Y,Yaw_Z,rms_rad_per_sec,TimeInterval,Date,,,,Accel_X,Accel_Y,Accel_Z,g_measured,TimeInterval,Date,,,,Pitch_X_angle
-0.018338,-0.139196,0.147709,0.203788,107135.8113,2001-01-02 05:45:35.811 +0000,,,,0.15834,-0.493423,-0.860458,1.004454,107135.8112,2001-01-02 05:45:35.811 +0000,,,,-0.018338
0.159075,-0.298741,0.194217,0.39022,107135.8013,2001-01-02 05:45:35.801 +0000,,,,0.143478,-0.500122,-0.864441,1.008943,107135.8014,2001-01-02 05:45:35.801 +0000,,,,0.140737
0.255257,-0.361504,0.201448,0.486233,107135.7913,2001-01-02 05:45:35.791 +0000,,,,0.145111,-0.500046,-0.921509,1.058433,107135.7916,2001-01-02 05:45:35.792 +0000,,,,0.395994
0.177884,-0.169928,0.154459,0.290475,107135.7814,2001-01-02 05:45:35.781 +0000,,,,0.153198,-0.499878,-0.986771,1.11672,107135.7818,2001-01-02 05:45:35.782 +0000,,,,0.573878
0.022722,0.058794,0.074789,0.097808,107135.7714,2001-01-02 05:45:35.771 +0000,,,,0.144699,-0.52182,-0.947372,1.091214,107135.772,2001-01-02 05:45:35.772 +0000,,,,0.5966
-0.085734,0.114953,-0.013713,0.144057,107135.7614,2001-01-02 05:45:35.761 +0000,,,,0.13295,-0.542099,-0.877625,1.040083,107135.7622,2001-01-02 05:45:35.762 +0000,,,,0.510866
-0.204467,0.08164,-0.094562,0.239612,107135.7514,2001-01-02 05:45:35.751 +0000,,,,0.139389,-0.555328,-0.859207,1.0325,107135.7524,2001-01-02 05:45:35.752 +0000,,,,0.306399
-0.319185,0.079266,-0.158372,0.365026,107135.7414,2001-01-02 05:45:35.741 +0000,,,,0.143341,-0.567459,-0.847992,1.030362,107135.7426,2001-01-02 05:45:35.743 +0000,,,,-0.012786
-0.382333,0.194151,-0.206125,0.475773,107135.7314,2001-01-02 05:45:35.731 +0000,,,,0.157516,-0.549591,-0.84993,1.024325,107135.7328,2001-01-02 05:45:35.733 +0000,,,,-0.395119
-0.389155,0.281503,-0.204271,0.521931,107135.7214,2001-01-02 05:45:35.721 +0000,,,,0.172897,-0.530136,-0.838257,1.006783,107135.723,2001-01-02 05:45:35.723 +0000,,,,-0.784274
-0.189301,0.13896,-0.181165,0.29659,107135.7114,2001-01-02 05:45:35.711 +0000,,,,0.161514,-0.505737,-0.725372,0.8989,107135.7132,2001-01-02 05:45:35.713 +0000,,,,-0.973575
0.015934,0.017663,-0.183724,0.185258,107135.7015,2001-01-02 05:45:35.701 +0000,,,,0.160965,-0.511353,-0.838043,0.99484,107135.7034,2001-01-02 05:45:35.703 +0000,,,,-0.957641
0.069282,-0.002521,-0.176898,0.189998,107135.6915,2001-01-02 05:45:35.691 +0000,,,,0.159378,-0.518066,-0.878555,1.032305,107135.6936,2001-01-02 05:45:35.694 +0000,,,,-0.888359
0.118397,-0.034416,-0.165795,0.206616,107135.6815,2001-01-02 05:45:35.681 +0000,,,,0.149628,-0.526718,-0.883255,1.039211,107135.6838,2001-01-02 05:45:35.684 +0000,,,,-0.769962
0.186631,-0.036501,-0.167466,0.253393,107135.6715,2001-01-02 05:45:35.672 +0000,,,,0.144562,-0.532471,-0.898697,1.054552,107135.674,2001-01-02 05:45:35.674 +0000,,,,-0.583331
0.239743,0.015708,-0.179003,0.299609,107135.6615,2001-01-02 05:45:35.662 +0000,,,,0.142365,-0.533798,-0.90799,1.062851,107135.6642,2001-01-02 05:45:35.664 +0000,,,,-0.343588
0.244987,0.065715,-0.204748,0.325974,107135.6515,2001-01-02 05:45:35.652 +0000,,,,0.14061,-0.507217,-0.910797,1.051947,107135.6544,2001-01-02 05:45:35.654 +0000,,,,-0.098601
0.20212,0.127445,-0.214821,0.321314,107135.6416,2001-01-02 05:45:35.642 +0000,,,,0.143951,-0.48111,-0.900253,1.030846,107135.6446,2001-01-02 05:45:35.645 +0000,,,,0.103519
0.151656,0.188162,-0.201436,0.314612,107135.6316,2001-01-02 05:45:35.632 +0000,,,,0.138733,-0.455185,-0.888351,1.007774,107135.6348,2001-01-02 05:45:35.635 +0000,,,,0.255175
0.11081,0.239307,-0.184755,0.321995,107135.6216,2001-01-02 05:45:35.622 +0000,,,,0.126678,-0.453278,-0.883713,1.001227,107135.625,2001-01-02 05:45:35.625 +0000,,,,0.365985
0.0914,0.278723,-0.178582,0.343413,107135.6116,2001-01-02 05:45:35.612 +0000,,,,0.108597,-0.454559,-0.883316,0.999332,107135.6152,2001-01-02 05:45:35.615 +0000,,,,0.457385
0.098924,0.282955,-0.192433,0.356202,107135.6016,2001-01-02 05:45:35.602 +0000,,,,0.097351,-0.458237,-0.875534,0.992984,107135.6055,2001-01-02 05:45:35.605 +0000,,,,0.556309
0.089616,0.255187,-0.218065,0.347425,107135.5916,2001-01-02 05:45:35.592 +0000,,,,0.086441,-0.465439,-0.868896,0.989488,107135.5957,2001-01-02 05:45:35.596 +0000,,,,0.645925
0.046144,0.215724,-0.224662,0.314864,107135.5816,2001-01-02 05:45:35.582 +0000,,,,0.080261,-0.47319,-0.869171,0.992879,107135.5859,2001-01-02 05:45:35.586 +0000,,,,0.692069
-0.002691,0.174144,-0.22381,0.283592,107135.5717,2001-01-02 05:45:35.572 +0000,,,,0.088165,-0.477722,-0.861526,0.98905,107135.5761,2001-01-02 05:45:35.576 +0000,,,,0.689378
-0.034558,0.142181,-0.216459,0.261274,107135.5617,2001-01-02 05:45:35.562 +0000,,,,0.093033,-0.480301,-0.854294,0.98446,107135.5663,2001-01-02 05:45:35.566 +0000,,,,0.65482
-0.055623,0.082524,-0.211096,0.233379,107135.5517,2001-01-02 05:45:35.552 +0000,,,,0.095581,-0.47908,-0.841949,0.973413,107135.5565,2001-01-02 05:45:35.556 +0000,,,,0.599197
-0.063922,0.023949,-0.202445,0.213644,107135.5417,2001-01-02 05:45:35.542 +0000,,,,0.104919,-0.475296,-0.83989,0.970736,107135.5467,2001-01-02 05:45:35.547 +0000,,,,0.535275
-0.043643,0.01651,-0.201219,0.206559,107135.5317,2001-01-02 05:45:35.532 +0000,,,,0.106583,-0.481628,-0.847794,0.980857,107135.5369,2001-01-02 05:45:35.537 +0000,,,,0.491632
-0.016052,0.053791,-0.210751,0.218099,107135.5217,2001-01-02 05:45:35.522 +0000,,,,0.100677,-0.489487,-0.864639,0.998666,107135.5271,2001-01-02 05:45:35.527 +0000,,,,0.47558
-0.010733,0.081441,-0.231092,0.245258,107135.5118,2001-01-02 05:45:35.512 +0000,,,,0.102966,-0.493912,-0.867401,1.003462,107135.5173,2001-01-02 05:45:35.517 +0000,,,,0.464847
-0.03831,0.076049,-0.249428,0.263563,107135.5018,2001-01-02 05:45:35.502 +0000,,,,0.103638,-0.49736,-0.864258,1.002522,107135.5075,2001-01-02 05:45:35.508 +0000,,,,0.426537
-0.071275,0.079183,-0.264618,0.285259,107135.4918,2001-01-02 05:45:35.492 +0000,,,,0.098633,-0.505829,-0.868347,1.009761,107135.4977,2001-01-02 05:45:35.498 +0000,,,,0.355262
-0.079722,0.075954,-0.275352,0.296552,107135.4818,2001-01-02 05:45:35.482 +0000,,,,0.101959,-0.514557,-0.87204,1.017653,107135.4879,2001-01-02 05:45:35.488 +0000,,,,0.27554
-0.060325,0.031227,-0.275099,0.283362,107135.4718,2001-01-02 05:45:35.472 +0000,,,,0.109055,-0.515213,-0.870682,1.017558,107135.4781,2001-01-02 05:45:35.478 +0000,,,,0.215215
-0.004737,-0.014516,-0.266052,0.266489,107135.4618,2001-01-02 05:45:35.462 +0000,,,,0.102127,-0.514923,-0.868469,1.014798,107135.4683,2001-01-02 05:45:35.468 +0000,,,,0.210478
0.072027,-0.013407,-0.270879,0.280612,107135.4518,2001-01-02 05:45:35.452 +0000,,,,0.09816,-0.509308,-0.881348,1.022645,107135.4585,2001-01-02 05:45:35.459 +0000,,,,0.282505
0.126237,0.044105,-0.29204,0.321198,107135.4418,2001-01-02 05:45:35.442 +0000,,,,0.102234,-0.497009,-0.900558,1.033671,107135.4487,2001-01-02 05:45:35.449 +0000,,,,0.408742
0.135432,0.150593,-0.310432,0.370659,107135.4319,2001-01-02 05:45:35.432 +0000,,,,0.094513,-0.484665,-0.915207,1.039921,107135.4389,2001-01-02 05:45:35.439 +0000,,,,0.544174
0.118965,0.267728,-0.323684,0.43658,107135.4219,2001-01-02 05:45:35.422 +0000,,,,0.087936,-0.486237,-0.931335,1.054298,107135.4292,2001-01-02 05:45:35.429 +0000,,,,0.663139
0.092043,0.327361,-0.325096,0.470451,107135.4119,2001-01-02 05:45:35.412 +0000,,,,0.084045,-0.485199,-0.929901,1.052235,107135.4194,2001-01-02 05:45:35.419 +0000,,,,0.755182
0.084567,0.319919,-0.316578,0.457954,107135.4019,2001-01-02 05:45:35.402 +0000,,,,0.076401,-0.478683,-0.916382,1.036692,107135.4096,2001-01-02 05:45:35.410 +0000,,,,0.839749
0.110126,0.304,-0.300335,0.441298,107135.3919,2001-01-02 05:45:35.392 +0000,,,,0.078766,-0.479202,-0.907578,1.029338,107135.3998,2001-01-02 05:45:35.400 +0000,,,,0.949875
0.153722,0.294506,-0.275439,0.431545,107135.3819,2001-01-02 05:45:35.382 +0000,,,,0.074677,-0.472351,-0.900543,1.019642,107135.39,2001-01-02 05:45:35.390 +0000,,,,1.103597
0.20474,0.279719,-0.239793,0.4215,107135.372,2001-01-02 05:45:35.372 +0000,,,,0.06752,-0.462784,-0.891235,1.006493,107135.3802,2001-01-02 05:45:35.380 +0000,,,,1.308337
0.256003,0.240377,-0.22545,0.417308,107135.362,2001-01-02 05:45:35.362 +0000,,,,0.050613,-0.451096,-0.874115,0.98495,107135.3704,2001-01-02 05:45:35.370 +0000,,,,1.56434
0.271321,0.159423,-0.227264,0.388175,107135.352,2001-01-02 05:45:35.352 +0000,,,,0.0354,-0.447327,-0.850311,0.961449,107135.3606,2001-01-02 05:45:35.361 +0000,,,,1.835661
0.24107,0.056,-0.254968,0.35533,107135.342,2001-01-02 05:45:35.342 +0000,,,,0.019318,-0.454193,-0.822235,0.93954,107135.3508,2001-01-02 05:45:35.351 +0000,,,,2.076731
0.166123,-0.024096,-0.312956,0.355132,107135.332,2001-01-02 05:45:35.332 +0000,,,,0.008377,-0.46434,-0.806198,0.930396,107135.341,2001-01-02 05:45:35.341 +0000,,,,2.242854
0.027097,-0.081858,-0.367162,0.377151,107135.322,2001-01-02 05:45:35.322 +0000,,,,0.002884,-0.466034,-0.800064,0.925904,107135.3312,2001-01-02 05:45:35.331 +0000,,,,2.269951
-0.145264,-0.088491,-0.413185,0.446827,107135.3121,2001-01-02 05:45:35.312 +0000,,,,0.008575,-0.46936,-0.805618,0.932413,107135.3214,2001-01-02 05:45:35.321 +0000,,,,2.124687
-0.32113,-0.060976,-0.434748,0.54392,107135.3021,2001-01-02 05:45:35.302 +0000,,,,0.021301,-0.466599,-0.825897,0.948828,107135.3116,2001-01-02 05:45:35.312 +0000,,,,1.803557
-0.477641,-0.080298,-0.447506,0.659432,107135.2921,2001-01-02 05:45:35.292 +0000,,,,0.034164,-0.468857,-0.835144,0.958363,107135.3018,2001-01-02 05:45:35.302 +0000,,,,1.325916
-0.579732,-0.11449,-0.458787,0.748119,107135.2821,2001-01-02 05:45:35.282 +0000,,,,0.044235,-0.466309,-0.843811,0.9651,107135.292,2001-01-02 05:45:35.292 +0000,,,,0.746184
-0.638168,-0.152883,-0.459077,0.800864,107135.2721,2001-01-02 05:45:35.272 +0000,,,,0.050369,-0.4711,-0.850906,0.973917,107135.2822,2001-01-02 05:45:35.282 +0000,,,,0.108016
-0.626484,-0.14329,-0.460093,0.790379,107135.2621,2001-01-02 05:45:35.262 +0000,,,,0.041336,-0.493759,-0.877869,1.008048,107135.2724,2001-01-02 05:45:35.272 +0000,,,,-0.518468
-0.536055,-0.095311,-0.470298,0.719457,107135.2522,2001-01-02 05:45:35.252 +0000,,,,0.041641,-0.52092,-0.913788,1.052663,107135.2626,2001-01-02 05:45:35.263 +0000,,,,-1.054523
-0.395713,-0.037652,-0.457754,0.606255,107135.2421,2001-01-02 05:45:35.242 +0000,,,,0.054001,-0.528793,-0.940109,1.079974,107135.2528,2001-01-02 05:45:35.253 +0000,,,,-1.450236
-0.22472,0.035021,-0.414057,0.472407,107135.2322,2001-01-02 05:45:35.232 +0000,,,,0.068451,-0.522385,-0.953445,1.089325,107135.243,2001-01-02 05:45:35.243 +0000,,,,-1.674956
-0.066686,0.11945,-0.351246,0.376947,107135.2222,2001-01-02 05:45:35.222 +0000,,,,0.086136,-0.508514,-0.962875,1.092307,107135.2332,2001-01-02 05:45:35.233 +0000,,,,-1.741642
0.037947,0.217707,-0.281354,0.357766,107135.2122,2001-01-02 05:45:35.212 +0000,,,,0.09642,-0.489014,-0.96492,1.086049,107135.2234,2001-01-02 05:45:35.223 +0000,,,,-1.703695
0.094854,0.299882,-0.238453,0.394698,107135.2022,2001-01-02 05:45:35.202 +0000,,,,0.085495,-0.476257,-0.964691,1.07924,107135.2136,2001-01-02 05:45:35.214 +0000,,,,-1.608841
0.10024,0.28923,-0.239456,0.388641,107135.1922,2001-01-02 05:45:35.192 +0000,,,,0.050888,-0.478867,-0.935455,1.052131,107135.2038,2001-01-02 05:45:35.204 +0000,,,,-1.508601
0.095262,0.242302,-0.260732,0.368465,107135.1822,2001-01-02 05:45:35.182 +0000,,,,0.019363,-0.490997,-0.885376,1.012593,107135.194,2001-01-02 05:45:35.194 +0000,,,,-1.413339
0.098736,0.208168,-0.279849,0.362489,107135.1723,2001-01-02 05:45:35.172 +0000,,,,-0.000931,-0.501373,-0.855286,0.991408,107135.1842,2001-01-02 05:45:35.184 +0000,,,,-1.314603
0.07254,0.106961,-0.274408,0.303319,107135.1623,2001-01-02 05:45:35.162 +0000,,,,-0.000549,-0.500397,-0.839294,0.977145,107135.1744,2001-01-02 05:45:35.174 +0000,,,,-1.242063
0.031408,-0.005946,-0.257283,0.259261,107135.1523,2001-01-02 05:45:35.152 +0000,,,,-0.000137,-0.48877,-0.815704,0.950931,107135.1646,2001-01-02 05:45:35.165 +0000,,,,-1.210655
-0.011939,-0.078419,-0.258447,0.270346,107135.1423,2001-01-02 05:45:35.142 +0000,,,,0.002563,-0.489563,-0.810349,0.946754,107135.1548,2001-01-02 05:45:35.155 +0000,,,,-1.222594
-0.047961,-0.084915,-0.289659,0.305636,107135.1323,2001-01-02 05:45:35.132 +0000,,,,0.005783,-0.498047,-0.817169,0.957,107135.145,2001-01-02 05:45:35.145 +0000,,,,-1.270555
-0.066084,-0.022201,-0.339103,0.346195,107135.1223,2001-01-02 05:45:35.122 +0000,,,,0.0009,-0.505814,-0.829483,0.97154,107135.1352,2001-01-02 05:45:35.135 +0000,,,,-1.336639
-0.093468,-0.037242,-0.381988,0.395016,107135.1124,2001-01-02 05:45:35.112 +0000,,,,-0.004471,-0.511871,-0.836227,0.980463,107135.1254,2001-01-02 05:45:35.125 +0000,,,,-1.430107
-0.138444,-0.172652,-0.417184,0.472248,107135.1024,2001-01-02 05:45:35.102 +0000,,,,-0.004669,-0.512009,-0.815536,0.962951,107135.1157,2001-01-02 05:45:35.116 +0000,,,,-1.568551
-0.195034,-0.333633,-0.450252,0.593361,107135.0924,2001-01-02 05:45:35.092 +0000,,,,-0.007889,-0.526016,-0.799286,0.956877,107135.1059,2001-01-02 05:45:35.106 +0000,,,,-1.763585
-0.239957,-0.437171,-0.519727,0.720288,107135.0824,2001-01-02 05:45:35.082 +0000,,,,-0.015121,-0.541916,-0.803864,0.969587,107135.0961,2001-01-02 05:45:35.096 +0000,,,,-2.003542
-0.26941,-0.422472,-0.596899,0.779328,107135.0724,2001-01-02 05:45:35.072 +0000,,,,0.001968,-0.555847,-0.826965,0.996414,107135.0863,2001-01-02 05:45:35.086 +0000,,,,-2.272952
-0.279406,-0.305364,-0.622929,0.7479,107135.0624,2001-01-02 05:45:35.062 +0000,,,,0.018188,-0.570831,-0.8694,1.040209,107135.0765,2001-01-02 05:45:35.076 +0000,,,,-2.552358
-0.249674,-0.245758,-0.65174,0.739932,107135.0525,2001-01-02 05:45:35.052 +0000,,,,0.030396,-0.58197,-0.919571,1.08868,107135.0667,2001-01-02 05:45:35.067 +0000,,,,-2.802032
-0.171941,-0.214839,-0.664122,0.718872,107135.0425,2001-01-02 05:45:35.042 +0000,,,,0.074463,-0.597229,-0.900879,1.083425,107135.0569,2001-01-02 05:45:35.057 +0000,,,,-2.973973
-0.054715,-0.224315,-0.653688,0.693267,107135.0325,2001-01-02 05:45:35.032 +0000,,,,0.015945,-0.531296,-0.89917,1.044527,107135.0471,2001-01-02 05:45:35.047 +0000,,,,-3.028688
0.070199,-0.316806,-0.615196,0.695529,107135.0225,2001-01-02 05:45:35.022 +0000,,,,-0.021927,-0.503769,-0.889832,1.022773,107135.0373,2001-01-02 05:45:35.037 +0000,,,,-2.958489
0.165423,-0.46254,-0.559663,0.744668,107135.0125,2001-01-02 05:45:35.013 +0000,,,,-0.002365,-0.502853,-0.859451,0.995753,107135.0275,2001-01-02 05:45:35.027 +0000,,,,-2.793066
0.214781,-0.570021,-0.52912,0.806859,107135.0025,2001-01-02 05:45:35.003 +0000,,,,-0.006897,-0.474854,-0.843521,0.968019,107135.0177,2001-01-02 05:45:35.018 +0000,,,,-2.578285
0.268343,-0.412302,-0.521707,0.717063,107134.9925,2001-01-02 05:45:34.993 +0000,,,,0.00444,-0.448486,-0.854752,0.965277,107135.0079,2001-01-02 05:45:35.008 +0000,,,,-2.309942
0.379711,0.134296,-0.509619,0.649559,107134.9825,2001-01-02 05:45:34.983 +0000,,,,0.007797,-0.437973,-0.896957,0.998205,107134.9981,2001-01-02 05:45:34.998 +0000,,,,-1.930231
0.475099,0.665995,-0.486913,0.952025,107134.9726,2001-01-02 05:45:34.973 +0000,,,,-0.009338,-0.433548,-0.969711,1.062258,107134.9883,2001-01-02 05:45:34.988 +0000,,,,-1.455132
0.453452,0.712896,-0.469022,0.966344,107134.9626,2001-01-02 05:45:34.963 +0000,,,,-0.02446,-0.436951,-0.983093,1.076102,107134.9785,2001-01-02 05:45:34.979 +0000,,,,-1.00168
0.386207,0.663982,-0.41378,0.872492,107134.9526,2001-01-02 05:45:34.953 +0000,,,,-0.027466,-0.422028,-0.915405,1.008379,107134.9687,2001-01-02 05:45:34.969 +0000,,,,-0.615473
0.308374,0.599083,-0.357498,0.762758,107134.9426,2001-01-02 05:45:34.943 +0000,,,,-0.043152,-0.419937,-0.893646,0.988338,107134.9589,2001-01-02 05:45:34.959 +0000,,,,-0.307099
0.232829,0.506479,-0.305399,0.635609,107134.9326,2001-01-02 05:45:34.933 +0000,,,,-0.04628,-0.418137,-0.888641,0.98319,107134.9491,2001-01-02 05:45:34.949 +0000,,,,-0.07427
0.180792,0.410678,-0.260613,0.518904,107134.9226,2001-01-02 05:45:34.923 +0000,,,,-0.034637,-0.416656,-0.886475,0.980122,107134.9393,2001-01-02 05:45:34.939 +0000,,,,0.106522
0.156383,0.325564,-0.210326,0.417953,107134.9126,2001-01-02 05:45:34.913 +0000,,,,-0.033218,-0.423828,-0.881104,0.978303,107134.9295,2001-01-02 05:45:34.930 +0000,,,,0.262905
0.14579,0.25536,-0.165329,0.337339,107134.9027,2001-01-02 05:45:34.903 +0000,,,,-0.037048,-0.423187,-0.873703,0.971502,107134.9197,2001-01-02 05:45:34.920 +0000,,,,0.408695
0.138409,0.195785,-0.131025,0.273233,107134.8927,2001-01-02 05:45:34.893 +0000,,,,-0.035004,-0.420883,-0.866928,0.96433,107134.9099,2001-01-02 05:45:34.910 +0000,,,,0.547104
0.129995,0.142574,-0.10743,0.220833,107134.8827,2001-01-02 05:45:34.883 +0000,,,,-0.038528,-0.430481,-0.857605,0.960356,107134.9001,2001-01-02 05:45:34.900 +0000,,,,0.677099
0.127009,0.081883,-0.094463,0.178212,107134.8727,2001-01-02 05:45:34.873 +0000,,,,-0.045532,-0.446198,-0.857346,0.967578,107134.8903,2001-01-02 05:45:34.890 +0000,,,,0.804108
0.129384,0.021184,-0.086802,0.157238,107134.8627,2001-01-02 05:45:34.863 +0000,,,,-0.056824,-0.455475,-0.856796,0.972001,107134.8805,2001-01-02 05:45:34.881 +0000,,,,0.933492
0.123156,-0.019291,-0.08246,0.149463,107134.8527,2001-01-02 05:45:34.853 +0000,,,,-0.063736,-0.463379,-0.856628,0.976009,107134.8707,2001-01-02 05:45:34.871 +0000,,,,1.056648
0.105097,-0.03315,-0.081476,0.13705,107134.8428,2001-01-02 05:45:34.843 +0000,,,,-0.06662,-0.46283,-0.859695,0.978635,107134.861,2001-01-02 05:45:34.861 +0000,,,,1.161745
0.07417,-0.027849,-0.082768,0.114574,107134.8328,2001-01-02 05:45:34.833 +0000,,,,-0.06723,-0.459915,-0.866516,0.983307,107134.8512,2001-01-02 05:45:34.851 +0000,,,,1.235915
0.033457,0.011546,-0.078875,0.086452,107134.8228,2001-01-02 05:45:34.823 +0000,,,,-0.065308,-0.455109,-0.868881,0.983028,107134.8414,2001-01-02 05:45:34.841 +0000,,,,1.269372
0.00112,0.078652,-0.071796,0.106499,107134.8128,2001-01-02 05:45:34.813 +0000,,,,-0.062637,-0.450012,-0.87265,0.983846,107134.8316,2001-01-02 05:45:34.832 +0000,,,,1.270492
-0.014091,0.138298,-0.070993,0.156093,107134.8028,2001-01-02 05:45:34.803 +0000,,,,-0.063034,-0.447784,-0.885956,0.994687,107134.8218,2001-01-02 05:45:34.822 +0000,,,,1.256401
0.003821,0.16285,-0.055979,0.172245,107134.7928,2001-01-02 05:45:34.793 +0000,,,,-0.061356,-0.45697,-0.890701,1.002963,107134.812,2001-01-02 05:45:34.812 +0000,,,,1.260222
0.038917,0.15334,-0.035415,0.162117,107134.7829,2001-01-02 05:45:34.783 +0000,,,,-0.059631,-0.463257,-0.886398,1.001931,107134.8022,2001-01-02 05:45:34.802 +0000,,,,1.299139
0.084968,0.090555,-0.022111,0.12613,107134.7728,2001-01-02 05:45:34.773 +0000,,,,-0.052414,-0.461548,-0.886536,1.000859,107134.7924,2001-01-02 05:45:34.792 +0000,,,,1.384107
0.119407,0.020274,-0.021688,0.123043,107134.7629,2001-01-02 05:45:34.763 +0000,,,,-0.053009,-0.464081,-0.87941,0.995762,107134.7826,2001-01-02 05:45:34.783 +0000,,,,1.503514
0.129262,-0.025544,-0.028977,0.13491,107134.7529,2001-01-02 05:45:34.753 +0000,,,,-0.04924,-0.455215,-0.880173,0.992144,107134.7728,2001-01-02 05:45:34.773 +0000,,,,1.632776
0.129355,-0.053225,-0.02249,0.141674,107134.7429,2001-01-02 05:45:34.743 +0000,,,,-0.054672,-0.463882,-0.884613,1.000358,107134.763,2001-01-02 05:45:34.763 +0000,,,,1.762131
0.121884,-0.061732,-0.013969,0.137337,107134.7329,2001-01-02 05:45:34.733 +0000,,,,-0.055862,-0.466675,-0.899872,1.015222,107134.7532,2001-01-02 05:45:34.753 +0000,,,,1.884015
0.125917,-0.036117,0.004153,0.13106,107134.7229,2001-01-02 05:45:34.723 +0000,,,,-0.054901,-0.457657,-0.909119,1.019294,107134.7434,2001-01-02 05:45:34.743 +0000,,,,2.009932
0.122405,0.008665,0.021104,0.124513,107134.7129,2001-01-02 05:45:34.713 +0000,,,,-0.050385,-0.449661,-0.90535,1.012123,107134.7336,2001-01-02 05:45:34.734 +0000,,,,2.132337
0.091368,0.043779,0.014388,0.102332,107134.703,2001-01-02 05:45:34.703 +0000,,,,-0.045685,-0.440186,-0.911743,1.013472,107134.7238,2001-01-02 05:45:34.724 +0000,,,,2.223705
0.062541,0.065042,0.005588,0.090405,107134.693,2001-01-02 05:45:34.693 +0000,,,,-0.05867,-0.448868,-0.901978,1.009202,107134.714,2001-01-02 05:45:34.714 +0000,,,,2.286246
0.041245,0.080965,-0.010627,0.091484,107134.683,2001-01-02 05:45:34.683 +0000,,,,-0.066711,-0.452072,-0.889832,1.00031,107134.7042,2001-01-02 05:45:34.704 +0000,,,,2.327491
0.030638,0.090504,-0.026752,0.099224,107134.673,2001-01-02 05:45:34.673 +0000,,,,-0.071671,-0.451462,-0.880463,0.992053,107134.6944,2001-01-02 05:45:34.694 +0000,,,,2.358129
0.030791,0.07024,-0.036312,0.084855,107134.663,2001-01-02 05:45:34.663 +0000,,,,-0.076965,-0.454575,-0.875214,0.989222,107134.6846,2001-01-02 05:45:34.685 +0000,,,,2.38892
0.050234,0.026557,-0.044611,0.072242,107134.653,2001-01-02 05:45:34.653 +0000,,,,-0.084152,-0.461578,-0.874954,0.992815,107134.6748,2001-01-02 05:45:34.675 +0000,,,,2.439154
0.082459,-0.01286,-0.054971,0.099934,107134.6431,2001-01-02 05:45:34.643 +0000,,,,-0.086395,-0.463364,-0.869827,0.989328,107134.665,2001-01-02 05:45:34.665 +0000,,,,2.521613
0.117699,-0.019241,-0.061127,0.134015,107134.6331,2001-01-02 05:45:34.633 +0000,,,,-0.079514,-0.460007,-0.865143,0.983057,107134.6552,2001-01-02 05:45:34.655 +0000,,,,2.639312
0.144371,-0.023485,-0.062004,0.158868,107134.6231,2001-01-02 05:45:34.623 +0000,,,,-0.07103,-0.456696,-0.870636,0.985709,107134.6454,2001-01-02 05:45:34.645 +0000,,,,2.783683
0.156124,-0.025615,-0.065124,0.171091,107134.6131,2001-01-02 05:45:34.613 +0000,,,,-0.068176,-0.456085,-0.878006,0.991744,107134.6356,2001-01-02 05:45:34.636 +0000,,,,2.939807
0.144379,-0.017109,-0.068432,0.160689,107134.6031,2001-01-02 05:45:34.603 +0000,,,,-0.061188,-0.454041,-0.881744,0.993665,107134.6258,2001-01-02 05:45:34.626 +0000,,,,3.084186
0.103774,0.006293,-0.069838,0.125244,107134.5931,2001-01-02 05:45:34.593 +0000,,,,-0.06398,-0.453522,-0.885666,0.997085,107134.616,2001-01-02 05:45:34.616 +0000,,,,3.18796
0.06198,0.054199,-0.070251,0.108232,107134.5832,2001-01-02 05:45:34.583 +0000,,,,-0.067551,-0.453384,-0.895584,1.006077,107134.6063,2001-01-02 05:45:34.606 +0000,,,,3.24994
0.039316,0.109584,-0.067349,0.1345,107134.5732,2001-01-02 05:45:34.573 +0000,,,,-0.070312,-0.44931,-0.905609,1.013386,107134.5965,2001-01-02 05:45:34.596 +0000,,,,3.289256
0.047676,0.12986,-0.055594,0.149088,107134.5632,2001-01-02 05:45:34.563 +0000,,,,-0.066956,-0.444916,-0.911179,1.016208,107134.5867,2001-01-02 05:45:34.587 +0000,,,,3.336932
0.087142,0.099045,-0.03601,0.136749,107134.5532,2001-01-02 05:45:34.553 +0000,,,,-0.065552,-0.438416,-0.914719,1.016472,107134.5769,2001-01-02 05:45:34.577 +0000,,,,3.424074
0.16525,0.000103,-0.007433,0.165417,107134.5432,2001-01-02 05:45:34.543 +0000,,,,-0.061661,-0.432404,-0.917648,1.016294,107134.5671,2001-01-02 05:45:34.567 +0000,,,,3.589324
0.269022,-0.122245,0.025655,0.296606,107134.5332,2001-01-02 05:45:34.533 +0000,,,,-0.06163,-0.429047,-0.920898,1.017808,107134.5573,2001-01-02 05:45:34.557 +0000,,,,3.858346
0.362187,-0.229738,0.03833,0.430614,107134.5232,2001-01-02 05:45:34.523 +0000,,,,-0.062271,-0.423691,-0.917633,1.012641,107134.5475,2001-01-02 05:45:34.547 +0000,,,,4.220533
0.423437,-0.295816,0.007936,0.516594,107134.5132,2001-01-02 05:45:34.513 +0000,,,,-0.070908,-0.427612,-0.915131,1.012593,107134.5377,2001-01-02 05:45:34.538 +0000,,,,4.64397
0.427926,-0.284213,-0.03908,0.515193,107134.5033,2001-01-02 05:45:34.503 +0000,,,,-0.075424,-0.426407,-0.909363,1.0072,107134.5279,2001-01-02 05:45:34.528 +0000,,,,5.071896
0.376576,-0.217193,-0.060979,0.438977,107134.4933,2001-01-02 05:45:34.493 +0000,,,,-0.071915,-0.428711,-0.89975,0.999257,107134.5181,2001-01-02 05:45:34.518 +0000,,,,5.448472
0.308049,-0.148007,-0.063766,0.347659,107134.4833,2001-01-02 05:45:34.483 +0000,,,,-0.064346,-0.431046,-0.899323,0.999361,107134.5083,2001-01-02 05:45:34.508 +0000,,,,5.756521
0.233151,-0.095846,-0.056934,0.258432,107134.4733,2001-01-02 05:45:34.473 +0000,,,,-0.053772,-0.433289,-0.899017,0.999431,107134.4985,2001-01-02 05:45:34.498 +0000,,,,5.989672
0.15626,-0.065008,-0.056468,0.178415,107134.4633,2001-01-02 05:45:34.463 +0000,,,,-0.061127,-0.432678,-0.894897,0.995886,107134.4887,2001-01-02 05:45:34.489 +0000,,,,6.145932
0.092264,-0.04271,-0.066577,0.121529,107134.4533,2001-01-02 05:45:34.453 +0000,,,,-0.067856,-0.425797,-0.893845,0.992404,107134.4789,2001-01-02 05:45:34.479 +0000,,,,6.238196
0.046477,-0.039572,-0.076512,0.097878,107134.4434,2001-01-02 05:45:34.443 +0000,,,,-0.0681,-0.418503,-0.89238,0.98799,107134.4691,2001-01-02 05:45:34.469 +0000,,,,6.284673
0.027468,-0.063049,-0.087261,0.111104,107134.4334,2001-01-02 05:45:34.433 +0000,,,,-0.077148,-0.415466,-0.892731,0.98769,107134.4593,2001-01-02 05:45:34.459 +0000,,,,6.312141
0.042461,-0.082205,-0.083902,0.1249,107134.4234,2001-01-02 05:45:34.423 +0000,,,,-0.075653,-0.412796,-0.892792,0.98651,107134.4495,2001-01-02 05:45:34.449 +0000,,,,6.354602
0.088254,-0.09066,-0.070748,0.14496,107134.4134,2001-01-02 05:45:34.413 +0000,,,,-0.072662,-0.414337,-0.89241,0.986586,107134.4397,2001-01-02 05:45:34.440 +0000,,,,6.442856
0.151291,-0.109815,-0.080956,0.20372,107134.4034,2001-01-02 05:45:34.403 +0000,,,,-0.064743,-0.414429,-0.897034,0.990259,107134.4299,2001-01-02 05:45:34.430 +0000,,,,6.594147
0.213324,-0.14069,-0.092207,0.271667,107134.3934,2001-01-02 05:45:34.393 +0000,,,,-0.061935,-0.41246,-0.911362,1.002267,107134.4201,2001-01-02 05:45:34.420 +0000,,,,6.807471
0.26461,-0.171537,-0.088571,0.327549,107134.3834,2001-01-02 05:45:34.383 +0000,,,,-0.069016,-0.416412,-0.918839,1.011151,107134.4103,2001-01-02 05:45:34.410 +0000,,,,7.072081
0.29352,-0.207718,-0.081867,0.368786,107134.3735,2001-01-02 05:45:34.373 +0000,,,,-0.074463,-0.415375,-0.925278,1.016966,107134.4005,2001-01-02 05:45:34.401 +0000,,,,7.365601
0.278541,-0.218337,-0.063774,0.359615,107134.3635,2001-01-02 05:45:34.363 +0000,,,,-0.069458,-0.406586,-0.922836,1.010823,107134.3907,2001-01-02 05:45:34.391 +0000,,,,7.644142
0.241127,-0.220444,-0.04372,0.32962,107134.3535,2001-01-02 05:45:34.354 +0000,,,,-0.058334,-0.398834,-0.913849,0.998795,107134.3809,2001-01-02 05:45:34.381 +0000,,,,7.885269
0.203693,-0.217229,-0.024748,0.298817,107134.3435,2001-01-02 05:45:34.344 +0000,,,,-0.045029,-0.395203,-0.914673,0.997416,107134.3711,2001-01-02 05:45:34.371 +0000,,,,8.088962
0.16518,-0.205502,-0.01008,0.263851,107134.3336,2001-01-02 05:45:34.334 +0000,,,,-0.032944,-0.394058,-0.912201,0.994222,107134.3613,2001-01-02 05:45:34.361 +0000,,,,8.254142
0.126746,-0.195936,-0.00716,0.233467,107134.3236,2001-01-02 05:45:34.324 +0000,,,,-0.030182,-0.395065,-0.91066,0.993121,107134.3516,2001-01-02 05:45:34.352 +0000,,,,8.380888
0.096773,-0.17783,0.000068,0.202456,107134.3136,2001-01-02 05:45:34.314 +0000,,,,-0.02977,-0.39621,-0.91304,0.995746,107134.3418,2001-01-02 05:45:34.342 +0000,,,,8.477661
0.089134,-0.14693,0.005275,0.171933,107134.3036,2001-01-02 05:45:34.304 +0000,,,,-0.032181,-0.395721,-0.913483,0.996033,107134.332,2001-01-02 05:45:34.332 +0000,,,,8.566795
0.093195,-0.104316,0.005187,0.139978,107134.2936,2001-01-02 05:45:34.294 +0000,,,,-0.036514,-0.395691,-0.921402,1.003437,107134.3222,2001-01-02 05:45:34.322 +0000,,,,8.65999
0.101521,-0.059574,0.002984,0.117748,107134.2836,2001-01-02 05:45:34.284 +0000,,,,-0.039795,-0.39209,-0.927292,1.007566,107134.3124,2001-01-02 05:45:34.312 +0000,,,,8.761511
0.10138,-0.029746,0.002902,0.105693,107134.2736,2001-01-02 05:45:34.274 +0000,,,,-0.040329,-0.388367,-0.924896,1.003936,107134.3026,2001-01-02 05:45:34.303 +0000,,,,8.862891
0.089528,-0.009502,0.00811,0.090395,107134.2637,2001-01-02 05:45:34.264 +0000,,,,-0.042877,-0.388168,-0.926315,1.005273,107134.2928,2001-01-02 05:45:34.293 +0000,,,,8.952419
0.065915,0.017128,0.014289,0.069587,107134.2537,2001-01-02 05:45:34.254 +0000,,,,-0.041443,-0.380493,-0.922043,0.998326,107134.283,2001-01-02 05:45:34.283 +0000,,,,9.018334
0.033864,0.037336,0.010812,0.051553,107134.2437,2001-01-02 05:45:34.244 +0000,,,,-0.042755,-0.372177,-0.917679,0.9912,107134.2732,2001-01-02 05:45:34.273 +0000,,,,9.052198
0.001869,0.045827,0.007368,0.046453,107134.2337,2001-01-02 05:45:34.234 +0000,,,,-0.044571,-0.36821,-0.915848,0.9881,107134.2634,2001-01-02 05:45:34.263 +0000,,,,9.054067
-0.027971,0.052183,0.001806,0.059234,107134.2237,2001-01-02 05:45:34.224 +0000,,,,-0.049973,-0.370331,-0.916214,0.98949,107134.2536,2001-01-02 05:45:34.254 +0000,,,,9.026096
-0.052409,0.05107,-0.010109,0.073872,107134.2137,2001-01-02 05:45:34.214 +0000,,,,-0.052475,-0.371689,-0.920395,0.993998,107134.2438,2001-01-02 05:45:34.244 +0000,,,,8.973687
-0.068292,0.047825,-0.025167,0.087088,107134.2037,2001-01-02 05:45:34.204 +0000,,,,-0.052658,-0.38118,-0.921326,0.998455,107134.234,2001-01-02 05:45:34.234 +0000,,,,8.905395
-0.073547,0.045663,-0.035881,0.093711,107134.1938,2001-01-02 05:45:34.194 +0000,,,,-0.051163,-0.388641,-0.919876,0.999916,107134.2242,2001-01-02 05:45:34.224 +0000,,,,8.831848
-0.069195,0.034998,-0.042234,0.088297,107134.1838,2001-01-02 05:45:34.184 +0000,,,,-0.053452,-0.393356,-0.919586,1.001611,107134.2144,2001-01-02 05:45:34.214 +0000,,,,8.762653
-0.0521,0.027551,-0.043167,0.073054,107134.1738,2001-01-02 05:45:34.174 +0000,,,,-0.05336,-0.394867,-0.921112,1.003601,107134.2046,2001-01-02 05:45:34.205 +0000,,,,8.710553
-0.036112,0.017994,-0.035553,0.053777,107134.1638,2001-01-02 05:45:34.164 +0000,,,,-0.05101,-0.395294,-0.919174,1.001869,107134.1948,2001-01-02 05:45:34.195 +0000,,,,8.674441
-0.032896,0.007358,-0.03016,0.045232,107134.1538,2001-01-02 05:45:34.154 +0000,,,,-0.046875,-0.394333,-0.917496,0.999747,107134.185,2001-01-02 05:45:34.185 +0000,,,,8.641545
-0.04248,0.004157,-0.029148,0.051685,107134.1438,2001-01-02 05:45:34.144 +0000,,,,-0.045639,-0.396851,-0.914398,0.997846,107134.1752,2001-01-02 05:45:34.175 +0000,,,,8.599065
-0.060593,-0.002237,-0.024979,0.065578,107134.1338,2001-01-02 05:45:34.134 +0000,,,,-0.046005,-0.393005,-0.91185,0.994002,107134.1654,2001-01-02 05:45:34.165 +0000,,,,8.538472
-0.070069,-0.032061,-0.020687,0.079785,107134.1239,2001-01-02 05:45:34.124 +0000,,,,-0.046173,-0.388626,-0.910385,0.990941,107134.1556,2001-01-02 05:45:34.156 +0000,,,,8.468403
-0.062423,-0.077849,-0.015169,0.100932,107134.1139,2001-01-02 05:45:34.114 +0000,,,,-0.044113,-0.385178,-0.914062,0.992884,107134.1458,2001-01-02 05:45:34.146 +0000,,,,8.40598
-0.045259,-0.121472,0.001093,0.129634,107134.1039,2001-01-02 05:45:34.104 +0000,,,,-0.038315,-0.383789,-0.914856,0.992836,107134.136,2001-01-02 05:45:34.136 +0000,,,,8.360721
-0.031379,-0.14805,0.018355,0.152448,107134.0939,2001-01-02 05:45:34.094 +0000,,,,-0.037186,-0.384186,-0.917236,0.99514,107134.1262,2001-01-02 05:45:34.126 +0000,,,,8.329342
-0.023938,-0.148037,0.021611,0.151509,107134.0839,2001-01-02 05:45:34.084 +0000,,,,-0.038086,-0.387939,-0.920288,0.999439,107134.1164,2001-01-02 05:45:34.116 +0000,,,,8.305404
-0.024101,-0.10438,0.014012,0.108038,107134.0739,2001-01-02 05:45:34.074 +0000,,,,-0.037292,-0.387512,-0.927704,1.006077,107134.1066,2001-01-02 05:45:34.107 +0000,,,,8.281303
-0.035029,-0.034107,0.003062,0.048986,107134.064,2001-01-02 05:45:34.064 +0000,,,,-0.039215,-0.386047,-0.938522,1.015576,107134.0968,2001-01-02 05:45:34.097 +0000,,,,8.246274
-0.042776,0.032986,-0.002515,0.054076,107134.054,2001-01-02 05:45:34.054 +0000,,,,-0.038498,-0.388474,-0.948944,1.026104,107134.087,2001-01-02 05:45:34.087 +0000,,,,8.203498
-0.047242,0.075593,-0.002661,0.089181,107134.044,2001-01-02 05:45:34.044 +0000,,,,-0.036438,-0.390686,-0.954849,1.032328,107134.0772,2001-01-02 05:45:34.077 +0000,,,,8.156256
-0.047347,0.088395,0.004783,0.100391,107134.034,2001-01-02 05:45:34.034 +0000,,,,-0.039673,-0.390808,-0.948853,1.02695,107134.0674,2001-01-02 05:45:34.067 +0000,,,,8.108909
-0.046312,0.084156,0.013349,0.096981,107134.024,2001-01-02 05:45:34.024 +0000,,,,-0.039169,-0.385437,-0.93837,1.015201,107134.0576,2001-01-02 05:45:34.058 +0000,,,,8.062597
-0.040963,0.079899,0.013397,0.090782,107134.014,2001-01-02 05:45:34.014 +0000,,,,-0.045181,-0.382477,-0.931534,1.00801,107134.0478,2001-01-02 05:45:34.048 +0000,,,,8.021634
-0.035686,0.089493,0.014475,0.097427,107134.0041,2001-01-02 05:45:34.004 +0000,,,,-0.046478,-0.37532,-0.919098,0.993864,107134.0381,2001-01-02 05:45:34.038 +0000,,,,7.985948
-0.036809,0.100148,0.015507,0.107819,107133.994,2001-01-02 05:45:33.994 +0000,,,,-0.047638,-0.369385,-0.91275,0.985813,107134.0283,2001-01-02 05:45:34.028 +0000,,,,7.949139
-0.046338,0.093736,0.010118,0.105052,107133.9841,2001-01-02 05:45:33.984 +0000,,,,-0.055191,-0.371887,-0.909409,0.984058,107134.0185,2001-01-02 05:45:34.018 +0000,,,,7.902801
-0.059034,0.087308,-0.000636,0.105395,107133.9741,2001-01-02 05:45:33.974 +0000,,,,-0.055008,-0.376587,-0.906158,0.982836,107134.0087,2001-01-02 05:45:34.009 +0000,,,,7.843767
-0.069559,0.080866,-0.017785,0.108139,107133.9641,2001-01-02 05:45:33.964 +0000,,,,-0.052841,-0.383286,-0.90303,0.982428,107133.9989,2001-01-02 05:45:33.999 +0000,,,,7.774208
-0.080101,0.071241,-0.029584,0.111206,107133.9541,2001-01-02 05:45:33.954 +0000,,,,-0.053741,-0.393326,-0.900787,0.984384,107133.9891,2001-01-02 05:45:33.989 +0000,,,,7.694107
-0.082197,0.069098,-0.033866,0.112596,107133.9441,2001-01-02 05:45:33.944 +0000,,,,-0.057251,-0.40477,-0.904388,0.992489,107133.9793,2001-01-02 05:45:33.979 +0000,,,,7.61191
-0.065198,0.077638,-0.031638,0.106205,107133.9341,2001-01-02 05:45:33.934 +0000,,,,-0.054749,-0.407791,-0.915848,1.004026,107133.9695,2001-01-02 05:45:33.969 +0000,,,,7.546712
-0.039653,0.080861,-0.028269,0.094393,107133.9242,2001-01-02 05:45:33.924 +0000,,,,-0.051514,-0.408508,-0.926529,1.013898,107133.9597,2001-01-02 05:45:33.960 +0000,,,,7.507059
-0.015153,0.075569,-0.021678,0.080064,107133.9142,2001-01-02 05:45:33.914 +0000,,,,-0.050964,-0.405762,-0.93515,1.020659,107133.9499,2001-01-02 05:45:33.950 +0000,,,,7.491906
-0.000248,0.067082,-0.011938,0.068137,107133.9042,2001-01-02 05:45:33.904 +0000,,,,-0.050629,-0.403214,-0.932693,1.01738,107133.9401,2001-01-02 05:45:33.940 +0000,,,,7.491658
0.004027,0.056449,-0.005469,0.056856,107133.8942,2001-01-02 05:45:33.894 +0000,,,,-0.044586,-0.398041,-0.929214,1.011862,107133.9303,2001-01-02 05:45:33.930 +0000,,,,7.495685
0.005104,0.04475,0.00205,0.045087,107133.8842,2001-01-02 05:45:33.884 +0000,,,,-0.038742,-0.395172,-0.926636,1.008125,107133.9205,2001-01-02 05:45:33.920 +0000,,,,7.500789
-0.002321,0.027719,0.009526,0.029402,107133.8742,2001-01-02 05:45:33.874 +0000,,,,-0.039322,-0.395447,-0.925125,1.006867,107133.9107,2001-01-02 05:45:33.911 +0000,,,,7.498468
-0.006442,-0.002111,0.009579,0.011735,107133.8643,2001-01-02 05:45:33.864 +0000,,,,-0.042145,-0.396881,-0.926788,1.009073,107133.9009,2001-01-02 05:45:33.901 +0000,,,,7.492026
-0.003095,-0.030876,0.007543,0.031935,107133.8543,2001-01-02 05:45:33.854 +0000,,,,-0.041351,-0.397995,-0.931442,1.013753,107133.8911,2001-01-02 05:45:33.891 +0000,,,,7.488931
0.00238,-0.046881,-0.004131,0.047122,107133.8443,2001-01-02 05:45:33.844 +0000,,,,-0.042984,-0.397324,-0.942169,1.023424,107133.8813,2001-01-02 05:45:33.881 +0000,,,,7.491311
0.000396,-0.056512,-0.021214,0.060364,107133.8343,2001-01-02 05:45:33.834 +0000,,,,-0.044693,-0.399384,-0.940613,1.022867,107133.8715,2001-01-02 05:45:33.872 +0000,,,,7.491707
-0.008019,-0.054439,-0.041578,0.068968,107133.8243,2001-01-02 05:45:33.824 +0000,,,,-0.052567,-0.399139,-0.937759,1.020523,107133.8617,2001-01-02 05:45:33.862 +0000,,,,7.483688
-0.022908,-0.043832,-0.055598,0.074412,107133.8143,2001-01-02 05:45:33.814 +0000,,,,-0.061951,-0.392868,-0.930267,1.011722,107133.8519,2001-01-02 05:45:33.852 +0000,,,,7.46078
-0.030282,-0.056631,-0.059887,0.08781,107133.8043,2001-01-02 05:45:33.804 +0000,,,,-0.069733,-0.391983,-0.922836,1.005057,107133.8421,2001-01-02 05:45:33.842 +0000,,,,7.430498
-0.013239,-0.074688,-0.043695,0.087538,107133.7944,2001-01-02 05:45:33.794 +0000,,,,-0.073685,-0.390396,-0.913818,0.996445,107133.8323,2001-01-02 05:45:33.832 +0000,,,,7.417259
0.004758,-0.074624,-0.023272,0.078313,107133.7844,2001-01-02 05:45:33.784 +0000,,,,-0.07962,-0.389053,-0.907227,0.990334,107133.8225,2001-01-02 05:45:33.823 +0000,,,,7.422017
0.009956,-0.061807,-0.011518,0.063655,107133.7744,2001-01-02 05:45:33.774 +0000,,,,-0.074585,-0.384445,-0.900665,0.98212,107133.8127,2001-01-02 05:45:33.813 +0000,,,,7.431973
0.005699,-0.061813,-0.012616,0.063344,107133.7644,2001-01-02 05:45:33.764 +0000,,,,-0.067062,-0.375259,-0.895477,0.97324,107133.8029,2001-01-02 05:45:33.803 +0000,,,,7.437672
-0.003861,-0.061834,-0.018023,0.064522,107133.7544,2001-01-02 05:45:33.754 +0000,,,,-0.060532,-0.372803,-0.897675,0.973892,107133.7931,2001-01-02 05:45:33.793 +0000,,,,7.433811
-0.009271,-0.044794,-0.018106,0.049196,107133.7444,2001-01-02 05:45:33.744 +0000,,,,-0.057343,-0.378311,-0.90303,0.98075,107133.7833,2001-01-02 05:45:33.783 +0000,,,,7.42454
0.000149,-0.003252,-0.022429,0.022664,107133.7344,2001-01-02 05:45:33.734 +0000,,,,-0.05513,-0.386261,-0.909332,0.989506,107133.7735,2001-01-02 05:45:33.774 +0000,,,,7.424689
0.006361,0.049987,-0.034285,0.060948,107133.7245,2001-01-02 05:45:33.724 +0000,,,,-0.052567,-0.394836,-0.915527,0.998423,107133.7637,2001-01-02 05:45:33.764 +0000,,,,7.43105
0.007228,0.100039,-0.040827,0.108291,107133.7145,2001-01-02 05:45:33.714 +0000,,,,-0.047882,-0.400894,-0.916946,1.001898,107133.7539,2001-01-02 05:45:33.754 +0000,,,,7.438278
0.008199,0.121343,-0.041946,0.12865,107133.7045,2001-01-02 05:45:33.704 +0000,,,,-0.048645,-0.405869,-0.917725,1.004646,107133.7441,2001-01-02 05:45:33.744 +0000,,,,7.446477
0.014597,0.108588,-0.032252,0.114213,107133.6945,2001-01-02 05:45:33.695 +0000,,,,-0.046021,-0.407639,-0.920639,1.0079,107133.7343,2001-01-02 05:45:33.734 +0000,,,,7.461074
0.030704,0.061771,-0.01492,0.070576,107133.6845,2001-01-02 05:45:33.685 +0000,,,,-0.042557,-0.406158,-0.922928,1.009243,107133.7245,2001-01-02 05:45:33.725 +0000,,,,7.491778
0.053253,0.006434,0.00141,0.053659,107133.6745,2001-01-02 05:45:33.675 +0000,,,,-0.04039,-0.396759,-0.922867,1.005352,107133.7147,2001-01-02 05:45:33.715 +0000,,,,7.545031
0.071466,-0.030802,0.015525,0.079354,107133.6645,2001-01-02 05:45:33.665 +0000,,,,-0.041962,-0.389542,-0.920975,1.000849,107133.705,2001-01-02 05:45:33.705 +0000,,,,7.616497
0.076774,-0.037168,0.024126,0.088644,107133.6546,2001-01-02 05:45:33.655 +0000,,,,-0.041763,-0.385651,-0.93045,1.008072,107133.6952,2001-01-02 05:45:33.695 +0000,,,,7.693271
0.052208,-0.032912,0.029292,0.068315,107133.6446,2001-01-02 05:45:33.645 +0000,,,,-0.044891,-0.382477,-0.938507,1.014445,107133.6854,2001-01-02 05:45:33.685 +0000,,,,7.745479
0.009449,-0.007375,0.030002,0.032308,107133.6346,2001-01-02 05:45:33.635 +0000,,,,-0.052353,-0.377579,-0.946716,1.020577,107133.6756,2001-01-02 05:45:33.676 +0000,,,,7.754928
-0.039766,0.036256,0.026346,0.059916,107133.6246,2001-01-02 05:45:33.625 +0000,,,,-0.057175,-0.377899,-0.951447,1.025342,107133.6658,2001-01-02 05:45:33.666 +0000,,,,7.715162
-0.091167,0.092666,0.021572,0.131772,107133.6146,2001-01-02 05:45:33.615 +0000,,,,-0.061646,-0.376938,-0.942703,1.017139,107133.656,2001-01-02 05:45:33.656 +0000,,,,7.623995
-0.131898,0.138447,0.023309,0.192634,107133.6046,2001-01-02 05:45:33.605 +0000,,,,-0.065094,-0.369797,-0.92598,0.999212,107133.6462,2001-01-02 05:45:33.646 +0000,,,,7.492097
-0.163889,0.14481,0.020939,0.2197,107133.5947,2001-01-02 05:45:33.595 +0000,,,,-0.065216,-0.36412,-0.912521,0.984648,107133.6364,2001-01-02 05:45:33.636 +0000,,,,7.328208
-0.171133,0.108566,0.013509,0.203115,107133.5847,2001-01-02 05:45:33.585 +0000,,,,-0.064743,-0.357773,-0.905823,0.976068,107133.6266,2001-01-02 05:45:33.627 +0000,,,,7.157075
-0.150527,0.040391,0.008491,0.156083,107133.5747,2001-01-02 05:45:33.575 +0000,,,,-0.066269,-0.362457,-0.900345,0.972825,107133.6168,2001-01-02 05:45:33.617 +0000,,,,7.006548
-0.112854,-0.036282,0.007885,0.118805,107133.5647,2001-01-02 05:45:33.565 +0000,,,,-0.066254,-0.368835,-0.899536,0.974471,107133.607,2001-01-02 05:45:33.607 +0000,,,,6.893694
-0.077336,-0.106569,0.006179,0.131818,107133.5547,2001-01-02 05:45:33.555 +0000,,,,-0.070419,-0.385727,-0.903549,0.98496,107133.5972,2001-01-02 05:45:33.597 +0000,,,,6.816358
-0.057898,-0.149186,-0.002122,0.160041,107133.5447,2001-01-02 05:45:33.545 +0000,,,,-0.071823,-0.403137,-0.911362,0.999129,107133.5874,2001-01-02 05:45:33.587 +0000,,,,6.75846
-0.07048,-0.172672,-0.018171,0.187385,107133.5348,2001-01-02 05:45:33.535 +0000,,,,-0.074432,-0.416321,-0.916687,1.009544,107133.5776,2001-01-02 05:45:33.578 +0000,,,,6.68798
-0.103402,-0.170619,-0.039769,0.203432,107133.5247,2001-01-02 05:45:33.525 +0000,,,,-0.074234,-0.419876,-0.91835,1.012509,107133.5678,2001-01-02 05:45:33.568 +0000,,,,6.584578
-0.141732,-0.154717,-0.059304,0.218042,107133.5148,2001-01-02 05:45:33.515 +0000,,,,-0.071762,-0.418442,-0.921814,1.014881,107133.558,2001-01-02 05:45:33.558 +0000,,,,6.442846
-0.185406,-0.156885,-0.06173,0.250598,107133.5048,2001-01-02 05:45:33.505 +0000,,,,-0.069946,-0.414703,-0.919891,1.01147,107133.5482,2001-01-02 05:45:33.548 +0000,,,,6.25744
-0.226762,-0.218667,-0.04795,0.318647,107133.4948,2001-01-02 05:45:33.495 +0000,,,,-0.065048,-0.413544,-0.918442,1.009349,107133.5384,2001-01-02 05:45:33.538 +0000,,,,6.030678
-0.254179,-0.295358,-0.036173,0.391346,107133.4848,2001-01-02 05:45:33.485 +0000,,,,-0.060669,-0.407196,-0.90976,0.998575,107133.5286,2001-01-02 05:45:33.529 +0000,,,,5.776499
-0.252112,-0.280445,-0.037269,0.378944,107133.4748,2001-01-02 05:45:33.475 +0000,,,,-0.053268,-0.402496,-0.903275,0.990326,107133.5188,2001-01-02 05:45:33.519 +0000,,,,5.524387
-0.211267,-0.141903,-0.026684,0.255895,107133.4648,2001-01-02 05:45:33.465 +0000,,,,-0.04393,-0.393021,-0.900833,0.983817,107133.509,2001-01-02 05:45:33.509 +0000,,,,5.31312
-0.148015,0.007277,-0.0288,0.150966,107133.4549,2001-01-02 05:45:33.455 +0000,,,,-0.036865,-0.388184,-0.890884,0.972482,107133.4992,2001-01-02 05:45:33.499 +0000,,,,5.165105
-0.076749,0.041411,-0.031617,0.092763,107133.4449,2001-01-02 05:45:33.445 +0000,,,,-0.034088,-0.392471,-0.894867,0.977744,107133.4894,2001-01-02 05:45:33.489 +0000,,,,5.088356
-0.009681,0.056377,-0.030137,0.064656,107133.4349,2001-01-02 05:45:33.435 +0000,,,,-0.035065,-0.403091,-0.924118,1.008814,107133.4796,2001-01-02 05:45:33.480 +0000,,,,5.078675
0.038167,0.089418,-0.037383,0.104162,107133.4249,2001-01-02 05:45:33.425 +0000,,,,-0.040649,-0.407928,-0.954208,1.038543,107133.4698,2001-01-02 05:45:33.470 +0000,,,,5.116842
0.040277,0.107502,-0.048103,0.12447,107133.4149,2001-01-02 05:45:33.415 +0000,,,,-0.040222,-0.412018,-0.962738,1.04797,107133.46,2001-01-02 05:45:33.460 +0000,,,,5.157119
0.013754,0.092547,-0.05679,0.10945,107133.4049,2001-01-02 05:45:33.405 +0000,,,,-0.03566,-0.412674,-0.944839,1.031646,107133.4502,2001-01-02 05:45:33.450 +0000,,,,5.170873
-0.027622,0.060542,-0.063393,0.091908,107133.395,2001-01-02 05:45:33.395 +0000,,,,-0.039886,-0.411163,-0.937729,1.024686,107133.4404,2001-01-02 05:45:33.440 +0000,,,,5.143251
-0.068987,0.027469,-0.071062,0.102779,107133.385,2001-01-02 05:45:33.385 +0000,,,,-0.0448,-0.40712,-0.935852,1.021554,107133.4306,2001-01-02 05:45:33.431 +0000,,,,5.074264
-0.089144,0.014658,-0.076506,0.118383,107133.375,2001-01-02 05:45:33.375 +0000,,,,-0.053909,-0.405441,-0.924591,1.011018,107133.4208,2001-01-02 05:45:33.421 +0000,,,,4.98512
-0.077447,0.024246,-0.079658,0.113716,107133.365,2001-01-02 05:45:33.365 +0000,,,,-0.055664,-0.404099,-0.899826,0.987968,107133.411,2001-01-02 05:45:33.411 +0000,,,,4.907673
-0.054073,0.031736,-0.07311,0.096313,107133.355,2001-01-02 05:45:33.355 +0000,,,,-0.054184,-0.408279,-0.891754,0.98227,107133.4012,2001-01-02 05:45:33.401 +0000,,,,4.8536
-0.039223,0.03603,-0.064473,0.083626,107133.3451,2001-01-02 05:45:33.345 +0000,,,,-0.055496,-0.413589,-0.893631,0.986262,107133.3914,2001-01-02 05:45:33.391 +0000,,,,4.814377
-0.022218,0.054136,-0.070819,0.091867,107133.3351,2001-01-02 05:45:33.335 +0000,,,,-0.051376,-0.416351,-0.906433,0.998804,107133.3816,2001-01-02 05:45:33.382 +0000,,,,4.792159
0.001267,0.058391,-0.080288,0.099284,107133.3251,2001-01-02 05:45:33.325 +0000,,,,-0.04451,-0.412796,-0.914429,1.004272,107133.3719,2001-01-02 05:45:33.372 +0000,,,,4.793426
0.022705,0.043472,-0.088651,0.101313,107133.3151,2001-01-02 05:45:33.315 +0000,,,,-0.040619,-0.407898,-0.912384,1.000238,107133.3621,2001-01-02 05:45:33.362 +0000,,,,4.816131
0.03448,0.028575,-0.085326,0.096363,107133.3051,2001-01-02 05:45:33.305 +0000,,,,-0.040558,-0.411057,-0.911453,1.000679,107133.3523,2001-01-02 05:45:33.352 +0000,,,,4.850611
0.03991,0.007273,-0.085231,0.094393,107133.2951,2001-01-02 05:45:33.295 +0000,,,,-0.05217,-0.42276,-0.906815,1.001878,107133.3425,2001-01-02 05:45:33.342 +0000,,,,4.890521
0.021885,-0.015105,-0.083155,0.087304,107133.2852,2001-01-02 05:45:33.285 +0000,,,,-0.058655,-0.427307,-0.902557,1.000321,107133.3327,2001-01-02 05:45:33.333 +0000,,,,4.912406
-0.014362,-0.018318,-0.079117,0.08247,107133.2752,2001-01-02 05:45:33.275 +0000,,,,-0.057953,-0.423141,-0.899994,0.996191,107133.3229,2001-01-02 05:45:33.323 +0000,,,,4.898044
-0.059131,-0.017286,-0.079422,0.100514,107133.2652,2001-01-02 05:45:33.265 +0000,,,,-0.059128,-0.415909,-0.900284,0.993472,107133.3131,2001-01-02 05:45:33.313 +0000,,,,4.838913
-0.098575,-0.015185,-0.079694,0.127667,107133.2552,2001-01-02 05:45:33.255 +0000,,,,-0.059677,-0.408981,-0.901794,0.991998,107133.3033,2001-01-02 05:45:33.303 +0000,,,,4.740338
-0.122004,-0.020526,-0.078769,0.146666,107133.2452,2001-01-02 05:45:33.245 +0000,,,,-0.059341,-0.404327,-0.901764,0.990041,107133.2935,2001-01-02 05:45:33.294 +0000,,,,4.618334
-0.109248,-0.011997,-0.079774,0.135805,107133.2352,2001-01-02 05:45:33.235 +0000,,,,-0.055725,-0.398666,-0.902313,0.988033,107133.2837,2001-01-02 05:45:33.284 +0000,,,,4.509086
-0.073118,0.0104,-0.079591,0.108578,107133.2253,2001-01-02 05:45:33.225 +0000,,,,-0.056396,-0.397186,-0.906509,0.991311,107133.2739,2001-01-02 05:45:33.274 +0000,,,,4.435968
-0.033705,0.008313,-0.073977,0.081718,107133.2152,2001-01-02 05:45:33.215 +0000,,,,-0.058914,-0.399826,-0.913239,0.998667,107133.2641,2001-01-02 05:45:33.264 +0000,,,,4.402263
0.009937,0.009432,-0.065138,0.066563,107133.2053,2001-01-02 05:45:33.205 +0000,,,,-0.058975,-0.403427,-0.921005,1.007215,107133.2543,2001-01-02 05:45:33.254 +0000,,,,4.4122
0.042824,0.025468,-0.052137,0.072116,107133.1953,2001-01-02 05:45:33.195 +0000,,,,-0.058411,-0.409668,-0.925095,1.01343,107133.2445,2001-01-02 05:45:33.245 +0000,,,,4.455024
0.067212,0.038296,-0.041322,0.087702,107133.1853,2001-01-02 05:45:33.185 +0000,,,,-0.058853,-0.410263,-0.928375,1.016691,107133.2347,2001-01-02 05:45:33.235 +0000,,,,4.522236
0.076727,0.042588,-0.031653,0.093288,107133.1753,2001-01-02 05:45:33.175 +0000,,,,-0.060654,-0.405289,-0.92363,1.01046,107133.2249,2001-01-02 05:45:33.225 +0000,,,,4.598963
0.06498,0.034084,-0.021024,0.076329,107133.1653,2001-01-02 05:45:33.165 +0000,,,,-0.062607,-0.394409,-0.91362,0.997086,107133.2151,2001-01-02 05:45:33.215 +0000,,,,4.663943
0.044676,0.037281,-0.014759,0.06003,107133.1553,2001-01-02 05:45:33.155 +0000,,,,-0.061478,-0.392883,-0.910248,0.993322,107133.2053,2001-01-02 05:45:33.205 +0000,,,,4.708619
0.018998,0.050061,-0.008556,0.054223,107133.1454,2001-01-02 05:45:33.145 +0000,,,,-0.061157,-0.394363,-0.912125,0.995607,107133.1955,2001-01-02 05:45:33.196 +0000,,,,4.727617
-0.014177,0.05966,0.006153,0.06163,107133.1354,2001-01-02 05:45:33.135 +0000,,,,-0.063232,-0.395233,-0.916977,1.000527,107133.1857,2001-01-02 05:45:33.186 +0000,,,,4.71344
-0.030307,0.073529,0.018829,0.081728,107133.1254,2001-01-02 05:45:33.125 +0000,,,,-0.063766,-0.395081,-0.918259,1.001675,107133.1759,2001-01-02 05:45:33.176 +0000,,,,4.683133
-0.022966,0.085279,0.029532,0.093124,107133.1154,2001-01-02 05:45:33.115 +0000,,,,-0.06514,-0.392609,-0.920624,1.002962,107133.1661,2001-01-02 05:45:33.166 +0000,,,,4.660167
-0.014314,0.057591,0.030734,0.06683,107133.1054,2001-01-02 05:45:33.105 +0000,,,,-0.065979,-0.392761,-0.923782,1.005976,107133.1563,2001-01-02 05:45:33.156 +0000,,,,4.645853
-0.008685,0.006438,0.021294,0.023881,107133.0954,2001-01-02 05:45:33.095 +0000,,,,-0.067383,-0.387955,-0.923279,1.00374,107133.1465,2001-01-02 05:45:33.147 +0000,,,,4.637168
-0.009468,-0.038333,0.009657,0.040648,107133.0854,2001-01-02 05:45:33.085 +0000,,,,-0.062424,-0.386749,-0.918777,0.998811,107133.1367,2001-01-02 05:45:33.137 +0000,,,,4.6277
-0.020851,-0.088452,-0.00738,0.091175,107133.0755,2001-01-02 05:45:33.075 +0000,,,,-0.064896,-0.388214,-0.916367,0.997321,107133.127,2001-01-02 05:45:33.127 +0000,,,,4.606849
-0.038735,-0.120458,-0.021304,0.128313,107133.0655,2001-01-02 05:45:33.065 +0000,,,,-0.069275,-0.398285,-0.902817,0.989196,107133.1172,2001-01-02 05:45:33.117 +0000,,,,4.568114
-0.058864,-0.125839,-0.037453,0.143886,107133.0555,2001-01-02 05:45:33.055 +0000,,,,-0.072342,-0.401474,-0.888718,0.977872,107133.1074,2001-01-02 05:45:33.107 +0000,,,,4.50925
-0.078049,-0.110969,-0.049377,0.144374,107133.0455,2001-01-02 05:45:33.046 +0000,,,,-0.074097,-0.405106,-0.878616,0.970344,107133.0976,2001-01-02 05:45:33.098 +0000,,,,4.431201
-0.092971,-0.101412,-0.056983,0.148912,107133.0355,2001-01-02 05:45:33.036 +0000,,,,-0.076859,-0.409424,-0.875275,0.969351,107133.0878,2001-01-02 05:45:33.088 +0000,,,,4.33823
-0.096172,-0.09397,-0.062367,0.14822,107133.0255,2001-01-02 05:45:33.026 +0000,,,,-0.077026,-0.414597,-0.876144,0.972344,107133.078,2001-01-02 05:45:33.078 +0000,,,,4.242058
-0.072842,-0.05563,-0.072999,0.117173,107133.0156,2001-01-02 05:45:33.016 +0000,,,,-0.071289,-0.418655,-0.883652,0.980405,107133.0681,2001-01-02 05:45:33.068 +0000,,,,4.169216
-0.026168,0.008286,-0.086748,0.090987,107133.0056,2001-01-02 05:45:33.006 +0000,,,,-0.062622,-0.426041,-0.895126,0.993319,107133.0583,2001-01-02 05:45:33.058 +0000,,,,4.143048
0.033314,0.071142,-0.102546,0.129177,107132.9956,2001-01-02 05:45:32.996 +0000,,,,-0.054535,-0.429474,-0.910675,1.008341,107133.0486,2001-01-02 05:45:33.049 +0000,,,,4.176362
0.083389,0.097766,-0.120445,0.176121,107132.9856,2001-01-02 05:45:32.986 +0000,,,,-0.048782,-0.433273,-0.916946,1.015331,107133.0388,2001-01-02 05:45:33.039 +0000,,,,4.259751
0.105795,0.102025,-0.127785,0.194758,107132.9756,2001-01-02 05:45:32.976 +0000,,,,-0.039993,-0.436584,-0.92778,1.026149,107133.029,2001-01-02 05:45:33.029 +0000,,,,4.365546
0.114286,0.114804,-0.132036,0.208985,107132.9656,2001-01-02 05:45:32.966 +0000,,,,-0.037384,-0.444977,-0.944214,1.044482,107133.0192,2001-01-02 05:45:33.019 +0000,,,,4.479832
0.098266,0.133943,-0.141813,0.218421,107132.9556,2001-01-02 05:45:32.956 +0000,,,,-0.039337,-0.447021,-0.951477,1.051991,107133.0094,2001-01-02 05:45:33.009 +0000,,,,4.578098
0.058895,0.133886,-0.152763,0.211497,107132.9456,2001-01-02 05:45:32.946 +0000,,,,-0.047897,-0.444794,-0.951355,1.051291,107132.9996,2001-01-02 05:45:33.000 +0000,,,,4.636993
0.012103,0.12424,-0.16267,0.205045,107132.9357,2001-01-02 05:45:32.936 +0000,,,,-0.052277,-0.436279,-0.940552,1.038128,107132.9898,2001-01-02 05:45:32.990 +0000,,,,4.649096
-0.028323,0.101852,-0.157539,0.189722,107132.9257,2001-01-02 05:45:32.926 +0000,,,,-0.058395,-0.421722,-0.930359,1.023146,107132.98,2001-01-02 05:45:32.980 +0000,,,,4.620773
-0.055823,0.034765,-0.139378,0.154114,107132.9157,2001-01-02 05:45:32.916 +0000,,,,-0.06778,-0.415436,-0.927109,1.01819,107132.9702,2001-01-02 05:45:32.970 +0000,,,,4.56495
-0.057769,-0.05143,-0.101759,0.127816,107132.9057,2001-01-02 05:45:32.906 +0000,,,,-0.076447,-0.407166,-0.925537,1.014025,107132.9604,2001-01-02 05:45:32.960 +0000,,,,4.507181
-0.042668,-0.132293,-0.067245,0.154415,107132.8957,2001-01-02 05:45:32.896 +0000,,,,-0.085419,-0.394608,-0.91571,1.000768,107132.9506,2001-01-02 05:45:32.951 +0000,,,,4.464513
-0.031862,-0.198262,-0.039211,0.204599,107132.8857,2001-01-02 05:45:32.886 +0000,,,,-0.089142,-0.381607,-0.898727,0.980449,107132.9408,2001-01-02 05:45:32.941 +0000,,,,4.432651
-0.046762,-0.237619,-0.011423,0.242446,107132.8758,2001-01-02 05:45:32.876 +0000,,,,-0.093704,-0.372559,-0.888702,0.96818,107132.931,2001-01-02 05:45:32.931 +0000,,,,4.385889
-0.06932,-0.235436,0.0162,0.245963,107132.8658,2001-01-02 05:45:32.866 +0000,,,,-0.092972,-0.367935,-0.878082,0.956582,107132.9212,2001-01-02 05:45:32.921 +0000,,,,4.316569
-0.087937,-0.178895,0.054387,0.206626,107132.8558,2001-01-02 05:45:32.856 +0000,,,,-0.094772,-0.357391,-0.871964,0.947117,107132.9114,2001-01-02 05:45:32.911 +0000,,,,4.228632
-0.089491,-0.124471,0.092695,0.179148,107132.8458,2001-01-02 05:45:32.846 +0000,,,,-0.090073,-0.354324,-0.872894,0.946363,107132.9016,2001-01-02 05:45:32.902 +0000,,,,4.139141
-0.068482,-0.093496,0.119465,0.166443,107132.8358,2001-01-02 05:45:32.836 +0000,,,,-0.088486,-0.353546,-0.876678,0.949415,107132.8918,2001-01-02 05:45:32.892 +0000,,,,4.070659
-0.026048,-0.067866,0.132504,0.151134,107132.8258,2001-01-02 05:45:32.826 +0000,,,,-0.085358,-0.358826,-0.885986,0.959695,107132.882,2001-01-02 05:45:32.882 +0000,,,,4.044611
0.009936,-0.019891,0.13689,0.138684,107132.8159,2001-01-02 05:45:32.816 +0000,,,,-0.071381,-0.357925,-0.904129,0.975015,107132.8722,2001-01-02 05:45:32.872 +0000,,,,4.054547
0.027729,0.047237,0.137897,0.148377,107132.8059,2001-01-02 05:45:32.806 +0000,,,,-0.066086,-0.363098,-0.931274,1.001738,107132.8624,2001-01-02 05:45:32.862 +0000,,,,4.082276
0.025364,0.10049,0.13453,0.169824,107132.7959,2001-01-02 05:45:32.796 +0000,,,,-0.063034,-0.377228,-0.947983,1.022226,107132.8526,2001-01-02 05:45:32.853 +0000,,,,4.10764
0.011306,0.143091,0.13432,0.196582,107132.7859,2001-01-02 05:45:32.786 +0000,,,,-0.061264,-0.389999,-0.950974,1.029662,107132.8428,2001-01-02 05:45:32.843 +0000,,,,4.118946
-0.00818,0.187855,0.149026,0.239927,107132.7759,2001-01-02 05:45:32.776 +0000,,,,-0.065598,-0.391968,-0.950714,1.030436,107132.833,2001-01-02 05:45:32.833 +0000,,,,4.110766
-0.026594,0.232617,0.16267,0.285096,107132.7659,2001-01-02 05:45:32.766 +0000,,,,-0.062531,-0.393204,-0.948212,1.028409,107132.8232,2001-01-02 05:45:32.823 +0000,,,,4.084172
-0.048909,0.214498,0.165775,0.275469,107132.756,2001-01-02 05:45:32.756 +0000,,,,-0.060226,-0.393616,-0.952225,1.03213,107132.8134,2001-01-02 05:45:32.813 +0000,,,,4.035263
-0.058214,0.152709,0.166948,0.233625,107132.7459,2001-01-02 05:45:32.746 +0000,,,,-0.057312,-0.390564,-0.940765,1.020228,107132.8036,2001-01-02 05:45:32.804 +0000,,,,3.977049
-0.058946,0.077085,0.171423,0.196984,107132.736,2001-01-02 05:45:32.736 +0000,,,,-0.063095,-0.385315,-0.935242,1.013472,107132.7939,2001-01-02 05:45:32.794 +0000,,,,3.918103
-0.045965,0.031299,0.175909,0.184489,107132.726,2001-01-02 05:45:32.726 +0000,,,,-0.068512,-0.390121,-0.92804,1.009032,107132.7841,2001-01-02 05:45:32.784 +0000,,,,3.872138
-0.016065,0.025981,0.170783,0.173493,107132.716,2001-01-02 05:45:32.716 +0000,,,,-0.07637,-0.396683,-0.931732,1.015537,107132.7743,2001-01-02 05:45:32.774 +0000,,,,3.856073
0.016899,0.052616,0.162385,0.171531,107132.706,2001-01-02 05:45:32.706 +0000,,,,-0.073257,-0.395538,-0.919891,1.004001,107132.7645,2001-01-02 05:45:32.764 +0000,,,,3.872972
0.034926,0.081373,0.154949,0.178467,107132.696,2001-01-02 05:45:32.696 +0000,,,,-0.073318,-0.398972,-0.90303,0.989958,107132.7547,2001-01-02 05:45:32.755 +0000,,,,3.907898
0.052773,0.14529,0.149553,0.215081,107132.686,2001-01-02 05:45:32.686 +0000,,,,-0.072128,-0.398499,-0.884705,0.972988,107132.7449,2001-01-02 05:45:32.745 +0000,,,,3.960671
0.060036,0.192156,0.1452,0.248217,107132.6761,2001-01-02 05:45:32.676 +0000,,,,-0.070633,-0.397751,-0.887115,0.974766,107132.7351,2001-01-02 05:45:32.735 +0000,,,,4.020707
0.021903,0.155882,0.134356,0.206955,107132.6661,2001-01-02 05:45:32.666 +0000,,,,-0.069077,-0.40239,-0.895355,0.984048,107132.7253,2001-01-02 05:45:32.725 +0000,,,,4.04261
-0.036359,0.098279,0.120229,0.159486,107132.6561,2001-01-02 05:45:32.656 +0000,,,,-0.068893,-0.4086,-0.907639,0.997751,107132.7155,2001-01-02 05:45:32.715 +0000,,,,4.006251
-0.083953,0.038554,0.10618,0.140743,107132.6461,2001-01-02 05:45:32.646 +0000,,,,-0.067184,-0.407089,-0.910706,0.99981,107132.7057,2001-01-02 05:45:32.706 +0000,,,,3.922298
-0.102816,-0.015816,0.095515,0.141225,107132.6361,2001-01-02 05:45:32.636 +0000,,,,-0.067001,-0.414581,-0.908203,1.0006,107132.6959,2001-01-02 05:45:32.696 +0000,,,,3.819482
-0.096136,-0.063772,0.086074,0.143936,107132.6261,2001-01-02 05:45:32.626 +0000,,,,-0.066818,-0.418594,-0.904724,0.999105,107132.6861,2001-01-02 05:45:32.686 +0000,,,,3.723346
-0.060737,-0.106367,0.082155,0.147486,107132.6161,2001-01-02 05:45:32.616 +0000,,,,-0.065018,-0.41568,-0.882233,0.977421,107132.6763,2001-01-02 05:45:32.676 +0000,,,,3.662609
-0.009322,-0.167035,0.088009,0.189032,107132.6062,2001-01-02 05:45:32.606 +0000,,,,-0.065308,-0.412949,-0.869095,0.964426,107132.6665,2001-01-02 05:45:32.666 +0000,,,,3.653287
0.037832,-0.230897,0.09598,0.252897,107132.5962,2001-01-02 05:45:32.596 +0000,,,,-0.06546,-0.41481,-0.863342,0.960059,107132.6567,2001-01-02 05:45:32.657 +0000,,,,3.691119
0.062452,-0.25325,0.096207,0.278013,107132.5862,2001-01-02 05:45:32.586 +0000,,,,-0.065918,-0.42453,-0.865936,0.966652,107132.6469,2001-01-02 05:45:32.647 +0000,,,,3.753571
0.036851,-0.239439,0.088517,0.257923,107132.5762,2001-01-02 05:45:32.576 +0000,,,,-0.06424,-0.432205,-0.880325,0.982802,107132.6371,2001-01-02 05:45:32.637 +0000,,,,3.790422
-0.047497,-0.217113,0.095367,0.241845,107132.5662,2001-01-02 05:45:32.566 +0000,,,,-0.063492,-0.426727,-0.895187,0.993724,107132.6273,2001-01-02 05:45:32.627 +0000,,,,3.742925
-0.152227,-0.186243,0.117015,0.267492,107132.5562,2001-01-02 05:45:32.556 +0000,,,,-0.06572,-0.417923,-0.901917,0.996209,107132.6175,2001-01-02 05:45:32.617 +0000,,,,3.590698
-0.232375,-0.173455,0.142084,0.322913,107132.5463,2001-01-02 05:45:32.546 +0000,,,,-0.068954,-0.408737,-0.899338,0.990267,107132.6077,2001-01-02 05:45:32.608 +0000,,,,3.358323
-0.280537,-0.164903,0.168448,0.366427,107132.5363,2001-01-02 05:45:32.536 +0000,,,,-0.075531,-0.400116,-0.901382,0.989084,107132.5979,2001-01-02 05:45:32.598 +0000,,,,3.077786
-0.298665,-0.17767,0.180114,0.391418,107132.5263,2001-01-02 05:45:32.526 +0000,,,,-0.082153,-0.394821,-0.907928,0.993462,107132.5881,2001-01-02 05:45:32.588 +0000,,,,2.779121
-0.291224,-0.182972,0.187658,0.391798,107132.5163,2001-01-02 05:45:32.516 +0000,,,,-0.083344,-0.38533,-0.914459,0.995822,107132.5783,2001-01-02 05:45:32.578 +0000,,,,2.487897
-0.274244,-0.17974,0.197381,0.382721,107132.5063,2001-01-02 05:45:32.506 +0000,,,,-0.073944,-0.373535,-0.912231,0.988515,107132.5685,2001-01-02 05:45:32.569 +0000,,,,2.213653
-0.279609,-0.198865,0.218767,0.406925,107132.4963,2001-01-02 05:45:32.496 +0000,,,,-0.061005,-0.36116,-0.911911,0.982721,107132.5587,2001-01-02 05:45:32.559 +0000,,,,1.934044
-0.297886,-0.212634,0.256079,0.446683,107132.4864,2001-01-02 05:45:32.486 +0000,,,,-0.060059,-0.360764,-0.909164,0.979968,107132.5489,2001-01-02 05:45:32.549 +0000,,,,1.636158
-0.291852,-0.189089,0.297727,0.457792,107132.4763,2001-01-02 05:45:32.476 +0000,,,,-0.059769,-0.371384,-0.917267,0.991401,107132.5391,2001-01-02 05:45:32.539 +0000,,,,1.344306
-0.262386,-0.163394,0.340597,0.459946,107132.4664,2001-01-02 05:45:32.466 +0000,,,,-0.062439,-0.383865,-0.919281,0.998163,107132.5293,2001-01-02 05:45:32.529 +0000,,,,1.08192
-0.226315,-0.183498,0.384704,0.482584,107132.4564,2001-01-02 05:45:32.456 +0000,,,,-0.068085,-0.388565,-0.91748,0.998694,107132.5195,2001-01-02 05:45:32.520 +0000,,,,0.855605
-0.160456,-0.190799,0.427908,0.495233,107132.4464,2001-01-02 05:45:32.446 +0000,,,,-0.063034,-0.390701,-0.912888,0.99498,107132.5097,2001-01-02 05:45:32.510 +0000,,,,0.695149
-0.099795,-0.210916,0.459359,0.515224,107132.4364,2001-01-02 05:45:32.436 +0000,,,,-0.051514,-0.381134,-0.901749,0.98034,107132.4999,2001-01-02 05:45:32.500 +0000,,,,0.595354
-0.078405,-0.258773,0.485278,0.555523,107132.4264,2001-01-02 05:45:32.426 +0000,,,,-0.040573,-0.370697,-0.89064,0.965558,107132.4901,2001-01-02 05:45:32.490 +0000,,,,0.516949
-0.076374,-0.257666,0.501316,0.568808,107132.4164,2001-01-02 05:45:32.416 +0000,,,,-0.030792,-0.37677,-0.898376,0.974671,107132.4803,2001-01-02 05:45:32.480 +0000,,,,0.440575
-0.08623,-0.198027,0.497882,0.542713,107132.4065,2001-01-02 05:45:32.406 +0000,,,,-0.027496,-0.387695,-0.907547,0.987272,107132.4706,2001-01-02 05:45:32.471 +0000,,,,0.354345
-0.105574,-0.130996,0.470857,0.500012,107132.3965,2001-01-02 05:45:32.396 +0000,,,,-0.021896,-0.39064,-0.899353,0.980773,107132.4608,2001-01-02 05:45:32.461 +0000,,,,0.248771
-0.119458,-0.083152,0.437509,0.461084,107132.3865,2001-01-02 05:45:32.387 +0000,,,,-0.017609,-0.396271,-0.906052,0.989075,107132.451,2001-01-02 05:45:32.451 +0000,,,,0.129313
-0.123623,-0.08107,0.419311,0.444608,107132.3765,2001-01-02 05:45:32.376 +0000,,,,-0.024704,-0.404022,-0.903961,0.990449,107132.4412,2001-01-02 05:45:32.441 +0000,,,,0.00569
-0.107541,-0.10236,0.420546,0.445984,107132.3665,2001-01-02 05:45:32.367 +0000,,,,-0.02478,-0.404083,-0.896439,0.983616,107132.4314,2001-01-02 05:45:32.431 +0000,,,,-0.101851
-0.074489,-0.122541,0.434714,0.457757,107132.3566,2001-01-02 05:45:32.357 +0000,,,,-0.016891,-0.415604,-0.910202,1.000739,107132.4216,2001-01-02 05:45:32.422 +0000,,,,-0.17634
-0.038232,-0.137406,0.443547,0.465915,107132.3466,2001-01-02 05:45:32.347 +0000,,,,-0.01503,-0.432556,-0.927597,1.023605,107132.4118,2001-01-02 05:45:32.412 +0000,,,,-0.214572
-0.016877,-0.146975,0.444786,0.468744,107132.3366,2001-01-02 05:45:32.337 +0000,,,,-0.014343,-0.445633,-0.931107,1.032354,107132.402,2001-01-02 05:45:32.402 +0000,,,,-0.231449
-0.014642,-0.156585,0.435211,0.462754,107132.3266,2001-01-02 05:45:32.327 +0000,,,,-0.011353,-0.454651,-0.930557,1.035748,107132.3922,2001-01-02 05:45:32.392 +0000,,,,-0.246091
-0.022962,-0.170498,0.411685,0.446185,107132.3166,2001-01-02 05:45:32.317 +0000,,,,-0.007004,-0.459702,-0.916229,1.02511,107132.3824,2001-01-02 05:45:32.382 +0000,,,,-0.269053
-0.029043,-0.180202,0.366793,0.409699,107132.3067,2001-01-02 05:45:32.307 +0000,,,,0.0056,-0.45491,-0.902679,1.010844,107132.3726,2001-01-02 05:45:32.373 +0000,,,,-0.298096
-0.030883,-0.17182,0.311195,0.356817,107132.2967,2001-01-02 05:45:32.297 +0000,,,,0.012131,-0.4487,-0.893677,1.000068,107132.3628,2001-01-02 05:45:32.363 +0000,,,,-0.328979
-0.035919,-0.158125,0.251287,0.299064,107132.2867,2001-01-02 05:45:32.287 +0000,,,,0.022583,-0.449341,-0.888504,0.99592,107132.353,2001-01-02 05:45:32.353 +0000,,,,-0.364898
-0.050682,-0.13375,0.205176,0.250109,107132.2767,2001-01-02 05:45:32.277 +0000,,,,0.029678,-0.452209,-0.889893,0.998641,107132.3432,2001-01-02 05:45:32.343 +0000,,,,-0.41558
-0.071959,-0.10295,0.173961,0.214568,107132.2667,2001-01-02 05:45:32.267 +0000,,,,0.031708,-0.464661,-0.89183,1.006119,107132.3334,2001-01-02 05:45:32.333 +0000,,,,-0.487539
-0.094374,-0.0785,0.159853,0.201549,107132.2567,2001-01-02 05:45:32.257 +0000,,,,0.029724,-0.483292,-0.895355,1.017897,107132.3237,2001-01-02 05:45:32.324 +0000,,,,-0.581913
-0.11253,-0.077435,0.16507,0.21426,107132.2467,2001-01-02 05:45:32.247 +0000,,,,0.022644,-0.501678,-0.899994,1.030623,107132.3139,2001-01-02 05:45:32.314 +0000,,,,-0.694443
-0.107269,-0.080593,0.179005,0.223706,107132.2368,2001-01-02 05:45:32.237 +0000,,,,0.017654,-0.516174,-0.904495,1.041566,107132.3041,2001-01-02 05:45:32.304 +0000,,,,-0.801712
-0.075237,-0.095477,0.181399,0.218362,107132.2268,2001-01-02 05:45:32.227 +0000,,,,0.017929,-0.51445,-0.907257,1.043118,107132.2943,2001-01-02 05:45:32.294 +0000,,,,-0.876949
-0.039877,-0.128487,0.176384,0.221835,107132.2168,2001-01-02 05:45:32.217 +0000,,,,0.022644,-0.501419,-0.904816,1.03471,107132.2845,2001-01-02 05:45:32.284 +0000,,,,-0.916826
-0.007687,-0.165763,0.170292,0.237773,107132.2068,2001-01-02 05:45:32.207 +0000,,,,0.029633,-0.477615,-0.902191,1.021246,107132.2747,2001-01-02 05:45:32.275 +0000,,,,-0.924513
0.012671,-0.171109,0.156553,0.232267,107132.1968,2001-01-02 05:45:32.197 +0000,,,,0.031296,-0.459488,-0.901306,1.012157,107132.2649,2001-01-02 05:45:32.265 +0000,,,,-0.911842
0.01065,-0.159462,0.128727,0.205212,107132.1868,2001-01-02 05:45:32.187 +0000,,,,0.036087,-0.448563,-0.896545,1.003147,107132.2551,2001-01-02 05:45:32.255 +0000,,,,-0.901192
-0.007529,-0.115861,0.10391,0.155813,107132.1769,2001-01-02 05:45:32.177 +0000,,,,0.039841,-0.438385,-0.893707,0.996234,107132.2453,2001-01-02 05:45:32.245 +0000,,,,-0.908721
-0.030032,-0.070111,0.087606,0.116156,107132.1669,2001-01-02 05:45:32.167 +0000,,,,0.039261,-0.443649,-0.892151,0.997146,107132.2355,2001-01-02 05:45:32.236 +0000,,,,-0.938753
-0.042869,-0.046712,0.07677,0.099566,107132.1569,2001-01-02 05:45:32.157 +0000,,,,0.036484,-0.449356,-0.890381,0.998013,107132.2257,2001-01-02 05:45:32.226 +0000,,,,-0.981622
-0.03975,-0.02754,0.074602,0.088905,107132.1469,2001-01-02 05:45:32.147 +0000,,,,0.036087,-0.457886,-0.885498,0.997531,107132.2159,2001-01-02 05:45:32.216 +0000,,,,-1.021372
-0.02593,-0.020073,0.074675,0.081558,107132.1369,2001-01-02 05:45:32.137 +0000,,,,0.040054,-0.467087,-0.885864,1.002262,107132.2061,2001-01-02 05:45:32.206 +0000,,,,-1.047302
-0.005625,-0.022207,0.067339,0.071129,107132.1269,2001-01-02 05:45:32.127 +0000,,,,0.039825,-0.473145,-0.890381,1.009074,107132.1963,2001-01-02 05:45:32.196 +0000,,,,-1.052927
0.006166,-0.024352,0.057807,0.06303,107132.1169,2001-01-02 05:45:32.117 +0000,,,,0.042923,-0.473038,-0.898346,1.016185,107132.1865,2001-01-02 05:45:32.187 +0000,,,,-1.046761
0.004109,-0.03608,0.05462,0.065589,107132.1069,2001-01-02 05:45:32.107 +0000,,,,0.05101,-0.47258,-0.910172,1.026814,107132.1767,2001-01-02 05:45:32.177 +0000,,,,-1.042652
-0.01076,-0.040366,0.049189,0.064534,107132.097,2001-01-02 05:45:32.097 +0000,,,,0.057632,-0.464722,-0.905334,1.019273,107132.1669,2001-01-02 05:45:32.167 +0000,,,,-1.053412
-0.01185,-0.019093,0.036301,0.042694,107132.087,2001-01-02 05:45:32.087 +0000,,,,0.060364,-0.458313,-0.908752,1.019571,107132.1571,2001-01-02 05:45:32.157 +0000,,,,-1.065262
-0.010725,-0.012738,0.021332,0.027062,107132.077,2001-01-02 05:45:32.077 +0000,,,,0.056885,-0.455368,-0.910309,1.01944,107132.1474,2001-01-02 05:45:32.147 +0000,,,,-1.075987
-0.010649,-0.023401,0.017088,0.030871,107132.067,2001-01-02 05:45:32.067 +0000,,,,0.053787,-0.458496,-0.909424,1.019884,107132.1376,2001-01-02 05:45:32.138 +0000,,,,-1.086636
-0.010543,-0.045772,0.017149,0.050003,107132.057,2001-01-02 05:45:32.057 +0000,,,,0.048737,-0.458939,-0.90506,1.01594,107132.1278,2001-01-02 05:45:32.128 +0000,,,,-1.097179
-0.01044,-0.066014,0.016137,0.068755,107132.047,2001-01-02 05:45:32.047 +0000,,,,0.047745,-0.45723,-0.899368,1.01005,107132.118,2001-01-02 05:45:32.118 +0000,,,,-1.107619
-0.022001,-0.099049,0.01508,0.102578,107132.0371,2001-01-02 05:45:32.037 +0000,,,,0.050537,-0.453094,-0.894257,1.003765,107132.1082,2001-01-02 05:45:32.108 +0000,,,,-1.12962
-0.043265,-0.108655,0.013894,0.117774,107132.0271,2001-01-02 05:45:32.027 +0000,,,,0.050934,-0.45134,-0.892715,1.00162,107132.0984,2001-01-02 05:45:32.098 +0000,,,,-1.172885
-0.060493,-0.070321,0.012605,0.093613,107132.0171,2001-01-02 05:45:32.017 +0000,,,,0.0466,-0.455429,-0.892654,1.003204,107132.0886,2001-01-02 05:45:32.089 +0000,,,,-1.233378
-0.065008,-0.021314,0.015647,0.07018,107132.0071,2001-01-02 05:45:32.007 +0000,,,,0.045792,-0.453995,-0.887161,0.997629,107132.0788,2001-01-02 05:45:32.079 +0000,,,,-1.298386
-0.055537,-0.005309,0.023147,0.060401,107131.9971,2001-01-02 05:45:31.997 +0000,,,,0.048859,-0.450745,-0.885666,0.994968,107132.069,2001-01-02 05:45:32.069 +0000,,,,-1.353923
-0.033221,-0.002075,0.031837,0.04606,107131.9871,2001-01-02 05:45:31.987 +0000,,,,0.049866,-0.448151,-0.886047,0.994186,107132.0592,2001-01-02 05:45:32.059 +0000,,,,-1.387144
-0.003441,0.009668,0.033074,0.03463,107131.9772,2001-01-02 05:45:31.977 +0000,,,,0.045807,-0.446899,-0.885025,0.992515,107132.0494,2001-01-02 05:45:32.049 +0000,,,,-1.390585
0.023111,0.0278,0.034273,0.049815,107131.9672,2001-01-02 05:45:31.967 +0000,,,,0.044815,-0.440231,-0.889328,0.993336,107132.0396,2001-01-02 05:45:32.040 +0000,,,,-1.367474
0.039039,0.041657,0.033274,0.06608,107131.9572,2001-01-02 05:45:31.957 +0000,,,,0.050995,-0.440247,-0.89679,1.000324,107132.0298,2001-01-02 05:45:32.030 +0000,,,,-1.328435
0.030481,0.052296,0.029982,0.067549,107131.9472,2001-01-02 05:45:31.947 +0000,,,,0.055634,-0.442825,-0.913086,1.016324,107132.02,2001-01-02 05:45:32.020 +0000,,,,-1.297954
0.438398,-0.109325,0.031037,0.452888,86143.71847,2001-01-01 23:55:43.718 +0000,,,,0.058258,-0.444214,-0.921555,1.024687,107132.0102,2001-01-02 05:45:32.010 +0000,,,,-0.859556
0.415779,-0.223445,-0.016888,0.472319,86143.70849,2001-01-01 23:55:43.708 +0000,,,,0.05751,-0.449234,-0.918854,1.024408,107132.0004,2001-01-02 05:45:32.000 +0000,,,,-0.443777
0.294996,-0.370551,-0.020509,0.474079,86143.69851,2001-01-01 23:55:43.699 +0000,,,,0.058899,-0.44751,-0.914352,1.019693,107131.9906,2001-01-02 05:45:31.991 +0000,,,,-0.148781
0.068165,-0.448408,0.009158,0.453652,86143.68853,2001-01-01 23:55:43.689 +0000,,,,0.056763,-0.447174,-0.911758,1.017099,107131.9808,2001-01-02 05:45:31.981 +0000,,,,-0.080616
-0.235914,-0.438931,0.054095,0.501241,86143.67852,2001-01-01 23:55:43.679 +0000,,,,0.05188,-0.44664,-0.904007,1.009657,107131.971,2001-01-02 05:45:31.971 +0000,,,,-0.31653
-0.527685,-0.323992,0.095622,0.626551,86143.66855,2001-01-01 23:55:43.669 +0000,,,,0.050049,-0.445801,-0.898102,1.003907,107131.9612,2001-01-02 05:45:31.961 +0000,,,,-0.844215
-0.69705,-0.142978,0.112152,0.720347,86143.65857,2001-01-01 23:55:43.659 +0000,,,,0.049454,-0.439758,-0.888443,0.992554,107131.9514,2001-01-02 05:45:31.951 +0000,,,,-1.541265
-0.659972,-0.062056,0.08547,0.66837,86143.64859,2001-01-01 23:55:43.649 +0000,,,,0.050049,-0.432358,-0.881027,0.982673,107131.9416,2001-01-02 05:45:31.942 +0000,,,,-2.201237
-0.412706,-0.060808,0.086066,0.425947,86143.63858,2001-01-01 23:55:43.639 +0000,,,,0.047989,-0.432312,-0.872192,0.974636,107131.9318,2001-01-02 05:45:31.932 +0000,,,,-2.613943
-0.008966,-0.044476,0.109048,0.11811,86143.6286,2001-01-01 23:55:43.629 +0000,,,,0.048645,-0.435013,-0.86525,0.96967,107131.922,2001-01-02 05:45:31.922 +0000,,,,-2.622909
0.352951,-0.189049,0.124706,0.419363,86143.61862,2001-01-01 23:55:43.619 +0000,,,,0.045547,-0.443329,-0.869003,0.976618,107131.9122,2001-01-02 05:45:31.912 +0000,,,,-2.269958
0.381934,-0.243335,0.133597,0.472159,86143.60864,2001-01-01 23:55:43.609 +0000,,,,0.043991,-0.45787,-0.878616,0.99174,107131.9024,2001-01-02 05:45:31.902 +0000,,,,-1.888024
0.247654,-0.250881,0.136986,0.378205,86143.59863,2001-01-01 23:55:43.599 +0000,,,,0.044128,-0.468002,-0.88858,1.00526,107131.8926,2001-01-02 05:45:31.893 +0000,,,,-1.64037
0.035267,-0.189255,0.135385,0.235351,86143.58865,2001-01-01 23:55:43.589 +0000,,,,0.052811,-0.465347,-0.898972,1.01365,107131.8828,2001-01-02 05:45:31.883 +0000,,,,-1.605103
-0.144321,-0.079662,0.136012,0.213714,86143.57867,2001-01-01 23:55:43.579 +0000,,,,0.065598,-0.456314,-0.914871,1.024458,107131.873,2001-01-02 05:45:31.873 +0000,,,,-1.749424
-0.204494,0.025749,0.133182,0.245394,86143.56869,2001-01-01 23:55:43.569 +0000,,,,0.079651,-0.446289,-0.930527,1.035084,107131.8632,2001-01-02 05:45:31.863 +0000,,,,-1.953918
-0.126848,0.053515,0.137905,0.194864,86143.55868,2001-01-01 23:55:43.559 +0000,,,,0.083786,-0.448715,-0.945145,1.049602,107131.8534,2001-01-02 05:45:31.853 +0000,,,,-2.080766
0.050425,-0.024109,0.142518,0.153085,86143.5487,2001-01-01 23:55:43.549 +0000,,,,0.077972,-0.457428,-0.944809,1.052608,107131.8436,2001-01-02 05:45:31.844 +0000,,,,-2.030341
0.228123,-0.180583,0.1388,0.322359,86143.53872,2001-01-01 23:55:43.539 +0000,,,,0.062332,-0.466324,-0.921494,1.034647,107131.8338,2001-01-02 05:45:31.834 +0000,,,,-1.802218
0.314261,-0.349926,0.128088,0.487457,86143.52874,2001-01-01 23:55:43.529 +0000,,,,0.045837,-0.471603,-0.890793,1.008971,107131.824,2001-01-02 05:45:31.824 +0000,,,,-1.487957
0.279638,-0.458622,0.122807,0.551011,86143.51873,2001-01-01 23:55:43.519 +0000,,,,0.040726,-0.470764,-0.894516,1.01165,107131.8143,2001-01-02 05:45:31.814 +0000,,,,-1.208319
0.157037,-0.460826,0.129465,0.503768,86143.50876,2001-01-01 23:55:43.509 +0000,,,,0.048981,-0.461411,-0.942642,1.050654,107131.8045,2001-01-02 05:45:31.804 +0000,,,,-1.051282
0.023174,-0.342649,0.141063,0.371274,86143.49878,2001-01-01 23:55:43.499 +0000,,,,0.055588,-0.4478,-0.971054,1.070776,107131.7947,2001-01-02 05:45:31.795 +0000,,,,-1.028108
-0.039589,-0.179638,0.169046,0.249827,86143.4888,2001-01-01 23:55:43.489 +0000,,,,0.05777,-0.432175,-0.910248,1.009289,107131.7849,2001-01-02 05:45:31.785 +0000,,,,-1.067697
-0.004355,-0.030352,0.218029,0.220175,86143.47882,2001-01-01 23:55:43.479 +0000,,,,0.042511,-0.435486,-0.826233,0.934942,107131.7751,2001-01-02 05:45:31.775 +0000,,,,-1.072052
0.06877,0.015592,0.251522,0.261219,86143.46881,2001-01-01 23:55:43.469 +0000,,,,0.045547,-0.428711,-0.764206,0.877427,107131.7653,2001-01-02 05:45:31.765 +0000,,,,-1.003282
0.093587,-0.06319,0.263657,0.286821,86143.45883,2001-01-01 23:55:43.459 +0000,,,,0.048172,-0.418869,-0.87674,0.972854,107131.7555,2001-01-02 05:45:31.755 +0000,,,,-0.909695
0.019597,-0.210217,0.277448,0.348644,86143.44885,2001-01-01 23:55:43.449 +0000,,,,0.046799,-0.422989,-0.886002,0.982908,107131.7457,2001-01-02 05:45:31.746 +0000,,,,-0.890098
-0.150507,-0.326406,0.297986,0.466893,86143.43887,2001-01-01 23:55:43.439 +0000,,,,0.044434,-0.431656,-0.896179,0.99571,107131.7359,2001-01-02 05:45:31.736 +0000,,,,-1.040605
-0.349937,-0.340324,0.328733,0.588508,86143.42886,2001-01-01 23:55:43.429 +0000,,,,0.041611,-0.439865,-0.90155,1.003995,107131.7261,2001-01-02 05:45:31.726 +0000,,,,-1.390542
-0.507059,-0.291348,0.363869,0.688763,86143.41888,2001-01-01 23:55:43.419 +0000,,,,0.039627,-0.443741,-0.898712,1.003075,107131.7163,2001-01-02 05:45:31.716 +0000,,,,-1.897601
-0.562879,-0.241256,0.390069,0.726079,86143.4089,2001-01-01 23:55:43.409 +0000,,,,0.038818,-0.441483,-0.89534,0.999023,107131.7065,2001-01-02 05:45:31.706 +0000,,,,-2.46048
-0.498489,-0.116558,0.395507,0.646918,86143.39892,2001-01-01 23:55:43.399 +0000,,,,0.040863,-0.43898,-0.889236,0.992529,107131.6967,2001-01-02 05:45:31.697 +0000,,,,-2.958969
-0.356947,-0.06427,0.389909,0.532514,86143.38891,2001-01-01 23:55:43.389 +0000,,,,0.05011,-0.437515,-0.886444,0.989805,107131.6869,2001-01-02 05:45:31.687 +0000,,,,-3.315916
-0.206277,-0.153626,0.396511,0.472623,86143.37893,2001-01-01 23:55:43.379 +0000,,,,0.05452,-0.442581,-0.88736,0.993105,107131.6771,2001-01-02 05:45:31.677 +0000,,,,-3.522193
-0.124979,-0.24831,0.422962,0.506137,86143.36895,2001-01-01 23:55:43.369 +0000,,,,0.058044,-0.446243,-0.903259,1.009148,107131.6673,2001-01-02 05:45:31.667 +0000,,,,-3.647172
-0.170734,-0.311102,0.460221,0.581152,86143.35897,2001-01-01 23:55:43.359 +0000,,,,0.056305,-0.449326,-0.913559,1.019634,107131.6575,2001-01-02 05:45:31.658 +0000,,,,-3.817906
-0.336758,-0.359169,0.457095,0.671821,86143.34897,2001-01-01 23:55:43.349 +0000,,,,0.054016,-0.452164,-0.915543,1.02254,107131.6477,2001-01-02 05:45:31.648 +0000,,,,-4.154664
-0.547422,-0.32971,0.37118,0.739023,86143.33899,2001-01-01 23:55:43.339 +0000,,,,0.052887,-0.452026,-0.908463,1.016085,107131.6379,2001-01-02 05:45:31.638 +0000,,,,-4.702086
-0.68239,-0.280005,0.26542,0.783905,86143.32901,2001-01-01 23:55:43.329 +0000,,,,0.045731,-0.451721,-0.898544,1.00674,107131.6281,2001-01-02 05:45:31.628 +0000,,,,-5.384476
-0.684023,-0.280214,0.182066,0.761285,86143.31903,2001-01-01 23:55:43.319 +0000,,,,0.041534,-0.44812,-0.889191,0.996593,107131.6183,2001-01-02 05:45:31.618 +0000,,,,-6.068499
-0.558797,-0.338814,0.141399,0.668613,86143.30902,2001-01-01 23:55:43.309 +0000,,,,0.044601,-0.442368,-0.880264,0.986176,107131.6085,2001-01-02 05:45:31.609 +0000,,,,-6.627296
-0.377563,-0.355709,0.14801,0.539435,86143.29904,2001-01-01 23:55:43.299 +0000,,,,0.050507,-0.444397,-0.888702,0.994903,107131.5987,2001-01-02 05:45:31.599 +0000,,,,-7.004859
-0.210146,-0.459809,0.217808,0.550478,86143.28906,2001-01-01 23:55:43.289 +0000,,,,0.050964,-0.44986,-0.91156,1.017798,107131.5889,2001-01-02 05:45:31.589 +0000,,,,-7.215005
-0.157232,-0.494697,0.309083,0.604135,86143.27908,2001-01-01 23:55:43.279 +0000,,,,0.054337,-0.451187,-0.921906,1.027829,107131.5791,2001-01-02 05:45:31.579 +0000,,,,-7.372237
-0.213011,-0.504158,0.376048,0.664049,86143.26907,2001-01-01 23:55:43.269 +0000,,,,0.054291,-0.449814,-0.925812,1.030731,107131.5693,2001-01-02 05:45:31.569 +0000,,,,-7.585248
-0.313452,-0.489242,0.406317,0.709016,86143.25909,2001-01-01 23:55:43.259 +0000,,,,0.048447,-0.448212,-0.927689,1.03143,107131.5596,2001-01-02 05:45:31.560 +0000,,,,-7.8987
-0.425564,-0.447778,0.406516,0.739503,86143.24911,2001-01-01 23:55:43.249 +0000,,,,0.038986,-0.444336,-0.920761,1.023111,107131.5498,2001-01-02 05:45:31.550 +0000,,,,-8.324264
-0.507953,-0.3786,0.404704,0.751757,86143.23913,2001-01-01 23:55:43.239 +0000,,,,0.03775,-0.427383,-0.906937,1.003302,107131.54,2001-01-02 05:45:31.540 +0000,,,,-8.832217
-0.556232,-0.300893,0.395618,0.745952,86143.22912,2001-01-01 23:55:43.229 +0000,,,,0.041397,-0.414978,-0.9048,0.996285,107131.5302,2001-01-02 05:45:31.530 +0000,,,,-9.388449
-0.610485,-0.279713,0.361002,0.7624,86143.21914,2001-01-01 23:55:43.219 +0000,,,,0.040543,-0.414886,-0.903687,0.9952,107131.5204,2001-01-02 05:45:31.520 +0000,,,,-9.998934
-0.693016,-0.345942,0.312542,0.835242,86143.20916,2001-01-01 23:55:43.209 +0000,,,,0.042496,-0.412811,-0.89827,0.989499,107131.5106,2001-01-02 05:45:31.511 +0000,,,,-10.69195
-0.790744,-0.387614,0.290626,0.927353,86143.19918,2001-01-01 23:55:43.199 +0000,,,,0.043839,-0.418015,-0.898087,0.991573,107131.5008,2001-01-02 05:45:31.501 +0000,,,,-11.482694
-0.846217,-0.378066,0.291294,0.971529,86143.18918,2001-01-01 23:55:43.189 +0000,,,,0.040237,-0.425964,-0.895538,0.992499,107131.491,2001-01-02 05:45:31.491 +0000,,,,-12.328911
-0.840623,-0.416446,0.277546,0.978318,86143.1792,2001-01-01 23:55:43.179 +0000,,,,0.03804,-0.430984,-0.898605,0.99734,107131.4812,2001-01-02 05:45:31.481 +0000,,,,-13.169534
-0.766866,-0.457944,0.274951,0.934556,86143.16922,2001-01-01 23:55:43.169 +0000,,,,0.037781,-0.436127,-0.898331,0.999316,107131.4714,2001-01-02 05:45:31.471 +0000,,,,-13.9364
-0.658055,-0.50043,0.292897,0.877072,86143.15924,2001-01-01 23:55:43.159 +0000,,,,0.03714,-0.435822,-0.895142,0.996292,107131.4616,2001-01-02 05:45:31.462 +0000,,,,-14.594455
-0.611284,-0.507785,0.319945,0.856667,86143.14923,2001-01-01 23:55:43.149 +0000,,,,0.039474,-0.434433,-0.890488,0.991594,107131.4518,2001-01-02 05:45:31.452 +0000,,,,-15.205739
-0.672562,-0.37259,0.299931,0.825301,86143.13925,2001-01-01 23:55:43.139 +0000,,,,0.039902,-0.438492,-0.891922,0.994682,107131.442,2001-01-02 05:45:31.442 +0000,,,,-15.878301
-0.813312,-0.215322,0.184223,0.861266,86143.12927,2001-01-01 23:55:43.129 +0000,,,,0.039474,-0.437698,-0.897308,0.99915,107131.4322,2001-01-02 05:45:31.432 +0000,,,,-16.691613
-0.95377,-0.090069,0.045097,0.959074,86143.11929,2001-01-01 23:55:43.119 +0000,,,,0.036865,-0.437881,-0.900314,1.001831,107131.4224,2001-01-02 05:45:31.422 +0000,,,,-17.645383
-0.993142,-0.019957,-0.021607,0.993578,86143.10928,2001-01-01 23:55:43.109 +0000,,,,0.030609,-0.438278,-0.905106,1.006102,107131.4126,2001-01-02 05:45:31.413 +0000,,,,-18.638525
-0.916686,0.000418,0.00984,0.916739,86143.0993,2001-01-01 23:55:43.099 +0000,,,,0.031265,-0.431595,-0.906693,1.004661,107131.4028,2001-01-02 05:45:31.403 +0000,,,,-19.555211
-0.793762,-0.003447,0.13249,0.804751,86143.08932,2001-01-01 23:55:43.089 +0000,,,,0.034332,-0.425262,-0.912338,1.007168,107131.393,2001-01-02 05:45:31.393 +0000,,,,-20.348973
-0.724424,-0.173525,0.258436,0.788473,86143.07934,2001-01-01 23:55:43.079 +0000,,,,0.039703,-0.423035,-0.922043,1.015233,107131.3832,2001-01-02 05:45:31.383 +0000,,,,-21.073397
-0.710954,-0.279052,0.228896,0.79732,86143.06933,2001-01-01 23:55:43.069 +0000,,,,0.045425,-0.419876,-0.932938,1.024076,107131.3734,2001-01-02 05:45:31.373 +0000,,,,-21.784351
-0.680378,-0.280398,0.107296,0.743673,86143.05935,2001-01-01 23:55:43.059 +0000,,,,0.049469,-0.423767,-0.945694,1.037479,107131.3636,2001-01-02 05:45:31.364 +0000,,,,-22.464729
-0.600958,-0.248674,-0.009791,0.65045,86143.04937,2001-01-01 23:55:43.049 +0000,,,,0.045227,-0.431229,-0.944763,1.03951,107131.3539,2001-01-02 05:45:31.354 +0000,,,,-23.065687
-0.455733,-0.180639,-0.109436,0.502294,86143.03939,2001-01-01 23:55:43.039 +0000,,,,0.035583,-0.430862,-0.929337,1.024976,107131.3441,2001-01-02 05:45:31.344 +0000,,,,-23.52142
-0.234977,-0.097604,-0.196858,0.321704,86143.02939,2001-01-01 23:55:43.029 +0000,,,,0.021729,-0.424179,-0.909348,1.00365,107131.3343,2001-01-02 05:45:31.334 +0000,,,,-23.756397
-0.003606,-0.023048,-0.270295,0.2713,86143.01941,2001-01-01 23:55:43.019 +0000,,,,0.015289,-0.411072,-0.909027,0.99777,107131.3245,2001-01-02 05:45:31.324 +0000,,,,-23.760003
0.096561,-0.166937,-0.330133,0.382334,86143.00943,2001-01-01 23:55:43.009 +0000,,,,0.013626,-0.402878,-0.940704,1.023436,107131.3147,2001-01-02 05:45:31.315 +0000,,,,-23.663442
-0.018815,-0.493126,-0.382382,0.624294,86142.99945,2001-01-01 23:55:42.999 +0000,,,,0.017105,-0.399307,-0.936951,1.018634,107131.3049,2001-01-02 05:45:31.305 +0000,,,,-23.682257
-0.230794,-0.724483,-0.397074,0.857793,86142.98944,2001-01-01 23:55:42.989 +0000,,,,0.012955,-0.389343,-0.854645,0.939241,107131.2951,2001-01-02 05:45:31.295 +0000,,,,-23.913051
-0.373269,-0.593519,-0.381296,0.798111,86142.97946,2001-01-01 23:55:42.979 +0000,,,,0.010315,-0.379974,-0.834335,0.916844,107131.2853,2001-01-02 05:45:31.285 +0000,,,,-24.28632
-0.301621,-0.019189,-0.343907,0.457838,86142.96948,2001-01-01 23:55:42.969 +0000,,,,0.024414,-0.385101,-0.891678,0.971591,107131.2755,2001-01-02 05:45:31.275 +0000,,,,-24.587941
-0.036898,0.750218,-0.310019,0.812589,86142.9595,2001-01-01 23:55:42.959 +0000,,,,0.024399,-0.392349,-0.892822,0.975533,107131.2657,2001-01-02 05:45:31.266 +0000,,,,-24.624839
0.376531,1.662411,-0.304366,1.73148,86142.94949,2001-01-01 23:55:42.949 +0000,,,,0.024139,-0.396881,-0.891525,0.976173,107131.2559,2001-01-02 05:45:31.256 +0000,,,,-24.248308
0.823231,2.097349,-0.313218,2.274794,86142.93951,2001-01-01 23:55:42.940 +0000,,,,0.02179,-0.406464,-0.894836,0.983066,107131.2461,2001-01-02 05:45:31.246 +0000,,,,-23.425077
1.057105,1.576557,-0.330526,1.92672,86142.92953,2001-01-01 23:55:42.930 +0000,,,,0.015228,-0.415192,-0.888077,0.980457,107131.2363,2001-01-02 05:45:31.236 +0000,,,,-22.367972
1.052488,0.525142,-0.324494,1.220164,86142.91955,2001-01-01 23:55:42.920 +0000,,,,0.017563,-0.42244,-0.877411,0.973968,107131.2265,2001-01-02 05:45:31.227 +0000,,,,-21.315484
0.939875,-0.257848,-0.296413,1.018682,86142.90958,2001-01-01 23:55:42.910 +0000,,,,0.024551,-0.429733,-0.880875,0.980415,107131.2167,2001-01-02 05:45:31.217 +0000,,,,-20.375609
0.8769,-0.471996,-0.288777,1.036882,86142.8996,2001-01-01 23:55:42.900 +0000,,,,0.028915,-0.444077,-0.901398,1.005265,107131.2069,2001-01-02 05:45:31.207 +0000,,,,-19.498709
0.861601,-0.385734,-0.294457,0.988864,86142.88962,2001-01-01 23:55:42.890 +0000,,,,0.036819,-0.456268,-0.923523,1.030743,107131.1971,2001-01-02 05:45:31.197 +0000,,,,-18.637108
0.799688,-0.452718,-0.22524,0.946144,86142.87964,2001-01-01 23:55:42.880 +0000,,,,0.040695,-0.461197,-0.935669,1.043952,107131.1873,2001-01-02 05:45:31.187 +0000,,,,-17.83742
0.688705,-0.513343,-0.154234,0.872711,86142.86963,2001-01-01 23:55:42.870 +0000,,,,0.04216,-0.45787,-0.944153,1.050165,107131.1775,2001-01-02 05:45:31.178 +0000,,,,-17.148715
0.517147,-0.57196,-0.114629,0.779564,86142.85965,2001-01-01 23:55:42.860 +0000,,,,0.041367,-0.448792,-0.942169,1.044417,107131.1677,2001-01-02 05:45:31.168 +0000,,,,-16.631568
0.319564,-0.476253,-0.123702,0.58672,86142.84967,2001-01-01 23:55:42.850 +0000,,,,0.039017,-0.431198,-0.933838,1.029324,107131.1579,2001-01-02 05:45:31.158 +0000,,,,-16.312004
0.167796,-0.175934,-0.114857,0.268888,86142.83969,2001-01-01 23:55:42.840 +0000,,,,0.03981,-0.424545,-0.939743,1.03196,107131.1481,2001-01-02 05:45:31.148 +0000,,,,-16.144208
0.030766,0.080882,-0.040616,0.095593,86142.82968,2001-01-01 23:55:42.830 +0000,,,,0.042038,-0.421509,-0.946594,1.037052,107131.1383,2001-01-02 05:45:31.138 +0000,,,,-16.113442
-0.004336,0.203535,0.028267,0.205534,86142.8197,2001-01-01 23:55:42.820 +0000,,,,0.042099,-0.419937,-0.948669,1.038313,107131.1285,2001-01-02 05:45:31.129 +0000,,,,-16.117778
0.074526,0.12705,0.090981,0.173128,86142.80972,2001-01-01 23:55:42.810 +0000,,,,0.035904,-0.422516,-0.954681,1.044617,107131.1188,2001-01-02 05:45:31.119 +0000,,,,-16.043252
0.166806,-0.070888,0.145567,0.232463,86142.79974,2001-01-01 23:55:42.800 +0000,,,,0.022614,-0.422531,-0.952942,1.042661,107131.109,2001-01-02 05:45:31.109 +0000,,,,-15.876446
0.1804,-0.265771,0.16649,0.361798,86142.78973,2001-01-01 23:55:42.790 +0000,,,,0.010864,-0.419067,-0.954468,1.04247,107131.0992,2001-01-02 05:45:31.099 +0000,,,,-15.696046
0.061624,-0.338402,0.124214,0.365709,86142.77975,2001-01-01 23:55:42.780 +0000,,,,-0.002243,-0.398743,-0.933426,1.015029,107131.0894,2001-01-02 05:45:31.089 +0000,,,,-15.634422
-0.151624,-0.276862,0.088416,0.32781,86142.76977,2001-01-01 23:55:42.770 +0000,,,,-0.004776,-0.380051,-0.901108,0.977986,107131.0796,2001-01-02 05:45:31.080 +0000,,,,-15.786046
-0.428214,-0.17903,0.100174,0.47482,86142.7598,2001-01-01 23:55:42.760 +0000,,,,-0.003159,-0.367935,-0.879105,0.953001,107131.0698,2001-01-02 05:45:31.070 +0000,,,,-16.21426
-0.732326,-0.10894,0.102205,0.747405,86142.74979,2001-01-01 23:55:42.750 +0000,,,,-0.001785,-0.361023,-0.877701,0.949052,107131.06,2001-01-02 05:45:31.060 +0000,,,,-16.946586
-0.964695,-0.068703,0.072746,0.969871,86142.73981,2001-01-01 23:55:42.740 +0000,,,,-0.001038,-0.361786,-0.88681,0.95777,107131.0502,2001-01-02 05:45:31.050 +0000,,,,-17.911281
-1.082591,-0.049825,-0.011445,1.083798,86142.72983,2001-01-01 23:55:42.730 +0000,,,,-0.000092,-0.359253,-0.893768,0.963268,107131.0404,2001-01-02 05:45:31.040 +0000,,,,-18.993872
-1.075647,-0.075565,-0.082918,1.081481,86142.71985,2001-01-01 23:55:42.720 +0000,,,,-0.004135,-0.360504,-0.899124,0.968713,107131.0306,2001-01-02 05:45:31.031 +0000,,,,-20.069519
-0.988256,-0.012771,-0.13165,0.997068,86142.70987,2001-01-01 23:55:42.710 +0000,,,,-0.006607,-0.364136,-0.900375,0.971244,107131.0208,2001-01-02 05:45:31.021 +0000,,,,-21.057775
-0.848173,-0.040502,-0.186192,0.869313,86142.69986,2001-01-01 23:55:42.700 +0000,,,,-0.00647,-0.371155,-0.905762,0.978878,107131.011,2001-01-02 05:45:31.011 +0000,,,,-21.905948
-0.644031,-0.133083,-0.207002,0.689447,86142.68988,2001-01-01 23:55:42.690 +0000,,,,-0.008682,-0.379211,-0.908112,0.984146,107131.0012,2001-01-02 05:45:31.001 +0000,,,,-22.549979
-0.394997,-0.332,-0.164177,0.54148,86142.6799,2001-01-01 23:55:42.680 +0000,,,,-0.003464,-0.389526,-0.908173,0.98819,107130.9914,2001-01-02 05:45:30.991 +0000,,,,-22.944976
-0.131326,-0.507398,-0.092468,0.532212,86142.66992,2001-01-01 23:55:42.670 +0000,,,,0.004532,-0.400665,-0.913162,0.997205,107130.9816,2001-01-02 05:45:30.982 +0000,,,,-23.076302
0.084968,-0.54761,-0.048158,0.556251,86142.65991,2001-01-01 23:55:42.660 +0000,,,,0.010178,-0.409409,-0.921738,1.008622,107130.9718,2001-01-02 05:45:30.972 +0000,,,,-22.991334
0.155438,-0.542294,-0.073341,0.568879,86142.64993,2001-01-01 23:55:42.650 +0000,,,,0.013229,-0.41304,-0.929428,1.01716,107130.962,2001-01-02 05:45:30.962 +0000,,,,-22.835896
-0.026576,-0.358604,-0.26099,0.444318,86142.63995,2001-01-01 23:55:42.640 +0000,,,,0.01004,-0.415558,-0.930908,1.019499,107130.9522,2001-01-02 05:45:30.952 +0000,,,,-22.862472
-0.287525,-0.104776,-0.494239,0.58131,86142.62997,2001-01-01 23:55:42.630 +0000,,,,0.006516,-0.420044,-0.93042,1.020863,107130.9424,2001-01-02 05:45:30.942 +0000,,,,-23.149997
-0.505831,0.096983,-0.687524,0.859046,86142.61996,2001-01-01 23:55:42.620 +0000,,,,-0.001572,-0.418121,-0.927094,1.01702,107130.9326,2001-01-02 05:45:30.933 +0000,,,,-23.655828
-0.579725,0.284191,-0.778286,1.011224,86142.60998,2001-01-01 23:55:42.610 +0000,,,,-0.001907,-0.412125,-0.913513,1.002176,107130.9228,2001-01-02 05:45:30.923 +0000,,,,-24.235553
-0.452745,0.431384,-0.7415,0.969996,86142.60001,2001-01-01 23:55:42.600 +0000,,,,0.001663,-0.410309,-0.9039,0.992669,107130.913,2001-01-02 05:45:30.913 +0000,,,,-24.688298
-0.252453,0.57979,-0.666825,0.918991,86142.59003,2001-01-01 23:55:42.590 +0000,,,,0.002518,-0.414795,-0.911743,1.001667,107130.9032,2001-01-02 05:45:30.903 +0000,,,,-24.940751
-0.170391,0.993248,-0.638545,1.193027,86142.58002,2001-01-01 23:55:42.580 +0000,,,,0.002609,-0.41156,-0.92067,1.008475,107130.8934,2001-01-02 05:45:30.893 +0000,,,,-25.111142
-0.222228,1.654602,-0.696255,1.808829,86142.57004,2001-01-01 23:55:42.570 +0000,,,,0.003387,-0.405701,-0.928406,1.013184,107130.8836,2001-01-02 05:45:30.884 +0000,,,,-25.33337
-0.339474,2.438335,-0.785725,2.5842,86142.56006,2001-01-01 23:55:42.560 +0000,,,,0.002365,-0.396103,-0.932739,1.013364,107130.8738,2001-01-02 05:45:30.874 +0000,,,,-25.672844
-0.423852,2.77156,-0.843832,2.92801,86142.55008,2001-01-01 23:55:42.550 +0000,,,,-0.006531,-0.388031,-0.932327,1.009874,107130.8641,2001-01-02 05:45:30.864 +0000,,,,-26.096696
-0.384982,2.615096,-0.802541,2.762428,86142.54007,2001-01-01 23:55:42.540 +0000,,,,-0.014587,-0.388412,-0.922623,1.001154,107130.8543,2001-01-02 05:45:30.854 +0000,,,,-26.481678
-0.175187,2.2045,-0.623705,2.29772,86142.53009,2001-01-01 23:55:42.530 +0000,,,,-0.014114,-0.382858,-0.90213,0.980111,107130.8445,2001-01-02 05:45:30.844 +0000,,,,-26.656865
0.102684,1.794011,-0.421971,1.845827,86142.52011,2001-01-01 23:55:42.520 +0000,,,,-0.010742,-0.384155,-0.90303,0.981404,107130.8347,2001-01-02 05:45:30.835 +0000,,,,-26.554181
0.304208,1.35247,-0.261271,1.410667,86142.51013,2001-01-01 23:55:42.510 +0000,,,,-0.009659,-0.386719,-0.912628,0.991229,107130.8249,2001-01-02 05:45:30.825 +0000,,,,-26.249973
0.399186,0.813644,-0.207877,0.929827,86142.50012,2001-01-01 23:55:42.500 +0000,,,,-0.01564,-0.388809,-0.916229,0.995436,107130.8151,2001-01-02 05:45:30.815 +0000,,,,-25.850787
0.380687,0.31596,-0.282513,0.569708,86142.49014,2001-01-01 23:55:42.490 +0000,,,,-0.018036,-0.38382,-0.923294,1.000057,107130.8053,2001-01-02 05:45:30.805 +0000,,,,-25.4701
0.433951,-0.091004,-0.309898,0.540954,86142.48016,2001-01-01 23:55:42.480 +0000,,,,-0.02179,-0.374664,-0.935364,1.007846,107130.7955,2001-01-02 05:45:30.795 +0000,,,,-25.036149
0.469085,-0.079268,-0.312898,0.569412,86142.47018,2001-01-01 23:55:42.470 +0000,,,,-0.020081,-0.360764,-0.947311,1.01388,107130.7857,2001-01-02 05:45:30.786 +0000,,,,-24.567064
0.424581,0.329732,-0.326064,0.628737,86142.46017,2001-01-01 23:55:42.460 +0000,,,,-0.012466,-0.342484,-0.955505,1.015106,107130.7759,2001-01-02 05:45:30.776 +0000,,,,-24.142483
0.397264,0.901179,-0.134401,0.993985,86142.45019,2001-01-01 23:55:42.450 +0000,,,,-0.001663,-0.33252,-0.966324,1.021936,107130.7661,2001-01-02 05:45:30.766 +0000,,,,-23.745219
0.319532,1.480164,0.104984,1.517896,86142.44022,2001-01-01 23:55:42.440 +0000,,,,0.000259,-0.329437,-0.972946,1.027207,107130.7563,2001-01-02 05:45:30.756 +0000,,,,-23.425687
0.311229,1.840301,0.137073,1.871459,86142.43024,2001-01-01 23:55:42.430 +0000,,,,-0.004379,-0.322632,-0.966492,1.018929,107130.7465,2001-01-02 05:45:30.746 +0000,,,,-23.114458
0.318765,1.565091,-0.012788,1.597274,86142.42023,2001-01-01 23:55:42.420 +0000,,,,-0.009201,-0.322968,-0.960861,1.013729,107130.7367,2001-01-02 05:45:30.737 +0000,,,,-22.795693
0.234763,0.600566,-0.168873,0.666566,86142.41025,2001-01-01 23:55:42.410 +0000,,,,-0.026474,-0.326645,-0.954681,1.009363,107130.7269,2001-01-02 05:45:30.727 +0000,,,,-22.56093
0.243729,-0.249789,-0.277626,0.445953,86142.40027,2001-01-01 23:55:42.400 +0000,,,,-0.045868,-0.325928,-0.940323,0.996263,107130.7171,2001-01-02 05:45:30.717 +0000,,,,-22.317201
0.297989,-0.604629,-0.335063,0.752756,86142.39029,2001-01-01 23:55:42.390 +0000,,,,-0.054901,-0.328476,-0.913773,0.972569,107130.7073,2001-01-02 05:45:30.707 +0000,,,,-22.019212
0.317088,-0.477619,-0.243388,0.622818,86142.38028,2001-01-01 23:55:42.380 +0000,,,,-0.053802,-0.335068,-0.894684,0.956883,107130.6975,2001-01-02 05:45:30.698 +0000,,,,-21.702124
0.23432,-0.258551,0.05571,0.353352,86142.3703,2001-01-01 23:55:42.370 +0000,,,,-0.050003,-0.340637,-0.89183,0.955979,107130.6877,2001-01-02 05:45:30.688 +0000,,,,-21.467804
0.171614,0.020147,0.338753,0.380277,86142.36032,2001-01-01 23:55:42.360 +0000,,,,-0.038818,-0.347198,-0.89566,0.961385,107130.6779,2001-01-02 05:45:30.678 +0000,,,,-21.29619
0.294114,0.574442,0.443855,0.783259,86142.35034,2001-01-01 23:55:42.350 +0000,,,,-0.023056,-0.353943,-0.897797,0.965322,107130.6681,2001-01-02 05:45:30.668 +0000,,,,-21.002076
0.476229,1.158135,0.359086,1.302694,86142.34033,2001-01-01 23:55:42.340 +0000,,,,-0.006302,-0.361755,-0.909119,0.97847,107130.6583,2001-01-02 05:45:30.658 +0000,,,,-20.525847
0.573416,1.429229,0.110042,1.543895,86142.33035,2001-01-01 23:55:42.330 +0000,,,,0.005875,-0.375885,-0.94783,1.01966,107130.6485,2001-01-02 05:45:30.649 +0000,,,,-19.952431
0.572213,1.449659,-0.240493,1.576951,86142.32037,2001-01-01 23:55:42.320 +0000,,,,-0.010391,-0.380737,-0.973343,1.045211,107130.6387,2001-01-02 05:45:30.639 +0000,,,,-19.380218
0.621989,1.443623,-0.539324,1.661863,86142.31039,2001-01-01 23:55:42.310 +0000,,,,-0.035522,-0.380188,-0.973267,1.045492,107130.6289,2001-01-02 05:45:30.629 +0000,,,,-18.758229
0.692912,1.498718,-0.680038,1.785703,86142.30038,2001-01-01 23:55:42.300 +0000,,,,-0.052216,-0.406158,-0.940903,1.026153,107130.6191,2001-01-02 05:45:30.619 +0000,,,,-18.065317
0.707505,1.296421,-0.641992,1.610412,86142.2904,2001-01-01 23:55:42.290 +0000,,,,-0.067261,-0.403702,-0.890717,0.980242,107130.6094,2001-01-02 05:45:30.609 +0000,,,,-17.357812
0.687098,0.796343,-0.395013,1.123522,86142.28043,2001-01-01 23:55:42.280 +0000,,,,-0.063019,-0.378677,-0.884018,0.963772,107130.5996,2001-01-02 05:45:30.600 +0000,,,,-16.670714
0.584838,0.326328,-0.030064,0.670395,86142.27045,2001-01-01 23:55:42.270 +0000,,,,-0.039017,-0.335556,-0.898788,0.960178,107130.5898,2001-01-02 05:45:30.590 +0000,,,,-16.085876
0.321915,0.275852,0.310222,0.52532,86142.26044,2001-01-01 23:55:42.260 +0000,,,,-0.029724,-0.317093,-0.924545,0.977863,107130.58,2001-01-02 05:45:30.580 +0000,,,,-15.763961
-0.202821,0.760681,0.51586,0.941214,86142.25046,2001-01-01 23:55:42.250 +0000,,,,-0.020004,-0.310486,-0.855667,0.910477,107130.5702,2001-01-02 05:45:30.570 +0000,,,,-15.966782
-0.900033,1.437735,0.536027,1.778895,86142.24048,2001-01-01 23:55:42.240 +0000,,,,-0.014511,-0.332367,-0.918655,0.977039,107130.5604,2001-01-02 05:45:30.560 +0000,,,,-16.866815
-1.450568,2.021066,0.52111,2.541733,86142.2305,2001-01-01 23:55:42.230 +0000,,,,-0.027039,-0.354935,-0.942459,1.007442,107130.5506,2001-01-02 05:45:30.551 +0000,,,,-18.317383
-1.735771,2.557838,0.554055,3.140448,86142.22049,2001-01-01 23:55:42.220 +0000,,,,-0.03096,-0.372528,-0.971909,1.041317,107130.5408,2001-01-02 05:45:30.541 +0000,,,,-20.053154
-1.737347,2.981012,0.658677,3.512644,86142.21051,2001-01-01 23:55:42.211 +0000,,,,-0.030182,-0.37648,-0.973145,1.043867,107130.531,2001-01-02 05:45:30.531 +0000,,,,-21.790501
-1.666773,3.179605,0.81889,3.682201,86142.20053,2001-01-01 23:55:42.201 +0000,,,,-0.033539,-0.376648,-0.945663,1.018463,107130.5212,2001-01-02 05:45:30.521 +0000,,,,-23.457274
-1.589798,3.202335,0.94009,3.696779,86142.19055,2001-01-01 23:55:42.191 +0000,,,,-0.04393,-0.376297,-0.929367,1.00362,107130.5114,2001-01-02 05:45:30.511 +0000,,,,-25.047072
-1.491431,3.090646,0.977387,3.568157,86142.18054,2001-01-01 23:55:42.181 +0000,,,,-0.047806,-0.377411,-0.931885,1.006545,107130.5016,2001-01-02 05:45:30.502 +0000,,,,-26.538503
-1.300189,3.02787,0.951066,3.429725,86142.17056,2001-01-01 23:55:42.171 +0000,,,,-0.042816,-0.369339,-0.948563,1.01883,107130.4918,2001-01-02 05:45:30.492 +0000,,,,-27.838692
-0.968029,3.017196,0.845418,3.279525,86142.16058,2001-01-01 23:55:42.161 +0000,,,,-0.025299,-0.344452,-0.95105,1.011822,107130.482,2001-01-02 05:45:30.482 +0000,,,,-28.806721
-0.641355,2.937034,0.642686,3.074175,86142.1506,2001-01-01 23:55:42.151 +0000,,,,-0.020462,-0.327774,-0.953506,1.008479,107130.4722,2001-01-02 05:45:30.472 +0000,,,,-29.448076
-0.445085,2.963247,0.417415,3.025421,86142.14059,2001-01-01 23:55:42.141 +0000,,,,-0.021378,-0.324203,-0.955246,1.008989,107130.4624,2001-01-02 05:45:30.462 +0000,,,,-29.893161
-0.465478,3.110007,0.323918,3.161287,86142.13061,2001-01-01 23:55:42.131 +0000,,,,-0.042084,-0.337555,-0.909546,0.971076,107130.4526,2001-01-02 05:45:30.453 +0000,,,,-30.358639
-0.697641,3.58526,0.448212,3.679903,86142.12064,2001-01-01 23:55:42.121 +0000,,,,-0.051285,-0.345764,-0.860992,0.929242,107130.4428,2001-01-02 05:45:30.443 +0000,,,,-31.05628
-1.055224,4.15047,0.799009,4.35641,86142.11066,2001-01-01 23:55:42.111 +0000,,,,-0.047104,-0.352524,-0.86882,0.938797,107130.4331,2001-01-02 05:45:30.433 +0000,,,,-32.111504
-1.358572,4.905012,1.019298,5.190745,86142.10065,2001-01-01 23:55:42.101 +0000,,,,-0.042877,-0.355988,-0.887405,0.957107,107130.4233,2001-01-02 05:45:30.423 +0000,,,,-33.470076
-1.440953,5.720794,0.955619,5.976373,86142.09067,2001-01-01 23:55:42.091 +0000,,,,-0.038147,-0.360535,-0.908218,0.977906,107130.4135,2001-01-02 05:45:30.413 +0000,,,,-34.911029
-1.388978,6.294423,0.71827,6.485748,86142.08069,2001-01-01 23:55:42.081 +0000,,,,-0.035599,-0.359116,-0.927933,0.995636,107130.4037,2001-01-02 05:45:30.404 +0000,,,,-36.300007
-0.961922,6.134073,0.36898,6.219991,86142.07071,2001-01-01 23:55:42.071 +0000,,,,-0.030228,-0.349365,-0.946121,1.009017,107130.3939,2001-01-02 05:45:30.394 +0000,,,,-37.261929
-0.614601,5.502774,0.004403,5.536991,86142.0607,2001-01-01 23:55:42.061 +0000,,,,-0.020798,-0.341904,-0.958954,1.018294,107130.3841,2001-01-02 05:45:30.384 +0000,,,,-37.87653
-0.512577,5.108888,-0.345378,5.14614,86142.05072,2001-01-01 23:55:42.051 +0000,,,,-0.012619,-0.3358,-0.981903,1.037812,107130.3743,2001-01-02 05:45:30.374 +0000,,,,-38.389107
-0.648204,5.063357,-0.621845,5.142416,86142.04074,2001-01-01 23:55:42.041 +0000,,,,-0.00914,-0.333649,-0.977951,1.033341,107130.3645,2001-01-02 05:45:30.364 +0000,,,,-39.037311
-1.013232,5.106447,-0.749441,5.259668,86142.03076,2001-01-01 23:55:42.031 +0000,,,,-0.015884,-0.341873,-0.944962,1.005028,107130.3547,2001-01-02 05:45:30.355 +0000,,,,-40.050543
-1.36642,5.23544,-0.607926,5.444861,86142.02075,2001-01-01 23:55:42.021 +0000,,,,-0.014221,-0.345978,-0.942078,1.0037,107130.3449,2001-01-02 05:45:30.345 +0000,,,,-41.416963
-1.4191,5.769567,-0.422744,5.956548,86142.01077,2001-01-01 23:55:42.011 +0000,,,,-0.0103,-0.347549,-0.953476,1.014896,107130.3351,2001-01-02 05:45:30.335 +0000,,,,-42.836063
-1.225219,6.410488,-0.203065,6.529683,86142.00079,2001-01-01 23:55:42.001 +0000,,,,-0.010849,-0.347229,-0.959335,1.020299,107130.3253,2001-01-02 05:45:30.325 +0000,,,,-44.061282
-0.956321,6.934964,-0.137496,7.001941,86141.99081,2001-01-01 23:55:41.991 +0000,,,,-0.018204,-0.346848,-0.953247,1.014551,107130.3155,2001-01-02 05:45:30.316 +0000,,,,-45.017603
-0.725001,7.348069,-0.294129,7.389605,86141.98083,2001-01-01 23:55:41.981 +0000,,,,-0.028275,-0.34639,-0.931961,0.994654,107130.3057,2001-01-02 05:45:30.306 +0000,,,,-45.742604
-0.65562,7.573468,-0.490879,7.617625,86141.97082,2001-01-01 23:55:41.971 +0000,,,,-0.038559,-0.349319,-0.905472,0.971283,107130.296,2001-01-02 05:45:30.296 +0000,,,,-46.398224
-0.822303,7.748493,-0.740374,7.827099,86141.96085,2001-01-01 23:55:41.961 +0000,,,,-0.037689,-0.351303,-0.880981,0.949191,107130.2862,2001-01-02 05:45:30.286 +0000,,,,-47.220527
-1.133286,7.946974,-0.939619,8.082179,86141.95087,2001-01-01 23:55:41.951 +0000,,,,-0.030823,-0.35144,-0.868713,0.937616,107130.2764,2001-01-02 05:45:30.276 +0000,,,,-48.353813
-1.456807,8.2164,-0.880561,8.390882,86141.94089,2001-01-01 23:55:41.941 +0000,,,,-0.018692,-0.358124,-0.879257,0.949576,107130.2666,2001-01-02 05:45:30.267 +0000,,,,-49.81062
-1.619672,8.915403,-0.759612,9.093116,86141.93088,2001-01-01 23:55:41.931 +0000,,,,-0.009583,-0.371872,-0.898697,0.972644,107130.2568,2001-01-02 05:45:30.257 +0000,,,,-51.430292
-1.697947,9.737632,-0.80191,9.917034,86141.9209,2001-01-01 23:55:41.921 +0000,,,,-0.007217,-0.384598,-0.911682,0.989511,107130.247,2001-01-02 05:45:30.247 +0000,,,,-53.128239
-1.647593,10.499497,-0.739531,10.65368,86141.91095,2001-01-01 23:55:41.911 +0000,,,,-0.005646,-0.398453,-0.908417,0.991977,107130.2372,2001-01-02 05:45:30.237 +0000,,,,-54.775832
-1.573248,11.128258,-0.661668,11.258377,86141.90097,2001-01-01 23:55:41.901 +0000,,,,-0.004654,-0.404175,-0.897202,0.984048,107130.2274,2001-01-02 05:45:30.227 +0000,,,,-56.34908
-1.609286,11.072863,-0.651076,11.208122,86141.89096,2001-01-01 23:55:41.891 +0000,,,,-0.004547,-0.408981,-0.888519,0.978137,107130.2176,2001-01-02 05:45:30.218 +0000,,,,-57.958366
-1.539481,10.928107,-0.623498,11.053609,86141.88098,2001-01-01 23:55:41.881 +0000,,,,-0.004684,-0.410416,-0.886414,0.976828,107130.2078,2001-01-02 05:45:30.208 +0000,,,,-59.497847
-1.504841,10.726973,-0.552196,10.846079,86141.871,2001-01-01 23:55:41.871 +0000,,,,0.005112,-0.41716,-0.888428,0.981505,107130.198,2001-01-02 05:45:30.198 +0000,,,,-61.002688
-1.534998,10.40769,-0.423311,10.52879,86141.86103,2001-01-01 23:55:41.861 +0000,,,,0.015579,-0.430115,-0.907333,1.004239,107130.1882,2001-01-02 05:45:30.188 +0000,,,,-62.537686
-1.618956,9.954178,-0.280533,10.088874,86141.85102,2001-01-01 23:55:41.851 +0000,,,,0.021988,-0.443695,-0.928619,1.029409,107130.1784,2001-01-02 05:45:30.178 +0000,,,,-64.156642
-1.694133,9.238584,-0.149805,9.393825,86141.84104,2001-01-01 23:55:41.841 +0000,,,,0.032166,-0.45372,-0.940964,1.045136,107130.1686,2001-01-02 05:45:30.169 +0000,,,,-65.850775
-1.693867,8.183106,-0.065728,8.356837,86141.83106,2001-01-01 23:55:41.831 +0000,,,,0.038483,-0.459167,-0.948746,1.05472,107130.1588,2001-01-02 05:45:30.159 +0000,,,,-67.544642
-1.586943,6.733417,-0.03649,6.917993,86141.82108,2001-01-01 23:55:41.821 +0000,,,,0.039001,-0.459,-0.9487,1.054625,107130.149,2001-01-02 05:45:30.149 +0000,,,,-69.131585
-1.356656,5.127206,-0.014543,5.303675,86141.81107,2001-01-01 23:55:41.811 +0000,,,,0.038208,-0.455231,-0.943741,1.048495,107130.1392,2001-01-02 05:45:30.139 +0000,,,,-70.488241
-1.067372,3.677608,-0.00224,3.829372,86141.80109,2001-01-01 23:55:41.801 +0000,,,,0.033081,-0.454391,-0.942474,1.046816,107130.1294,2001-01-02 05:45:30.129 +0000,,,,-71.555613
-0.801038,2.56676,0.013262,2.688883,86141.79111,2001-01-01 23:55:41.791 +0000,,,,0.033676,-0.45401,-0.940628,1.045007,107130.1196,2001-01-02 05:45:30.120 +0000,,,,-72.356651
-0.605931,1.914893,-0.011431,2.008506,86141.78113,2001-01-01 23:55:41.781 +0000,,,,0.026474,-0.455719,-0.939102,1.044171,107130.1098,2001-01-02 05:45:30.110 +0000,,,,-72.962582
-0.500644,1.547387,-0.036434,1.62677,86141.77112,2001-01-01 23:55:41.771 +0000,,,,0.028076,-0.455597,-0.926956,1.03325,107130.1001,2001-01-02 05:45:30.100 +0000,,,,-73.463226
-0.42081,1.306771,-0.005323,1.372866,86141.76114,2001-01-01 23:55:41.761 +0000,,,,0.029251,-0.444382,-0.923782,1.025526,107130.0903,2001-01-02 05:45:30.090 +0000,,,,-73.884036
-0.317764,1.103481,0.03546,1.14887,86141.75116,2001-01-01 23:55:41.751 +0000,,,,0.028381,-0.436325,-0.927139,1.025072,107130.0805,2001-01-02 05:45:30.080 +0000,,,,-74.2018
-0.206722,0.7809,0.081963,0.811946,86141.74118,2001-01-01 23:55:41.741 +0000,,,,0.029739,-0.422348,-0.925232,1.017505,107130.0707,2001-01-02 05:45:30.071 +0000,,,,-74.408522
-0.115456,0.408138,0.088935,0.433377,86141.73117,2001-01-01 23:55:41.731 +0000,,,,0.030869,-0.412674,-0.925568,1.013868,107130.0609,2001-01-02 05:45:30.061 +0000,,,,-74.523978
-0.053993,0.040653,0.085006,0.1086,86141.72119,2001-01-01 23:55:41.721 +0000,,,,0.030579,-0.41188,-0.929382,1.017021,107130.0511,2001-01-02 05:45:30.051 +0000,,,,-74.577971
-0.027078,-0.189526,0.04521,0.196716,86141.71121,2001-01-01 23:55:41.711 +0000,,,,0.025528,-0.416199,-0.928116,1.017483,107130.0413,2001-01-02 05:45:30.041 +0000,,,,-74.605049
-0.053371,-0.219461,0.009853,0.226072,86141.70124,2001-01-01 23:55:41.701 +0000,,,,0.018219,-0.421478,-0.921844,1.013791,107130.0315,2001-01-02 05:45:30.031 +0000,,,,-74.65842
-0.097276,0.014932,0.035632,0.104667,86141.69123,2001-01-01 23:55:41.691 +0000,,,,0.010635,-0.420441,-0.902115,0.995336,107130.0217,2001-01-02 05:45:30.022 +0000,,,,-74.755696
-0.150188,0.334571,0.073941,0.374115,86141.68125,2001-01-01 23:55:41.681 +0000,,,,0.00029,-0.421005,-0.893997,0.988168,107130.0119,2001-01-02 05:45:30.012 +0000,,,,-74.905884
-0.18743,0.538025,0.079548,0.575265,86141.67127,2001-01-01 23:55:41.671 +0000,,,,-0.005356,-0.426605,-0.892395,0.989136,107130.0021,2001-01-02 05:45:30.002 +0000,,,,-75.093314
-0.182945,0.526241,0.051829,0.55954,86141.66129,2001-01-01 23:55:41.661 +0000,,,,0.005188,-0.421539,-0.882462,0.977988,107129.9923,2001-01-02 05:45:29.992 +0000,,,,-75.276259
-0.121753,0.285385,-0.008008,0.310374,86141.65128,2001-01-01 23:55:41.651 +0000,,,,0.016769,-0.419083,-0.882202,0.976828,107129.9825,2001-01-02 05:45:29.983 +0000,,,,-75.398012
-0.030779,-0.133416,-0.093874,0.166011,86141.6413,2001-01-01 23:55:41.641 +0000,,,,0.024857,-0.423004,-0.887451,0.983423,107129.9727,2001-01-02 05:45:29.973 +0000,,,,-75.428791
0.06336,-0.577717,-0.154005,0.60124,86141.63132,2001-01-01 23:55:41.631 +0000,,,,0.028198,-0.426666,-0.893173,0.990251,107129.9629,2001-01-02 05:45:29.963 +0000,,,,-75.365431
0.141346,-0.826958,-0.163486,0.854732,86141.62134,2001-01-01 23:55:41.621 +0000,,,,0.027328,-0.434723,-0.89827,0.998308,107129.9531,2001-01-02 05:45:29.953 +0000,,,,-75.224085
0.159087,-0.781072,-0.136778,0.808758,86141.61133,2001-01-01 23:55:41.611 +0000,,,,0.025085,-0.440186,-0.907135,1.008606,107129.9433,2001-01-02 05:45:29.943 +0000,,,,-75.064998
0.100378,-0.400642,-0.068755,0.418708,86141.60135,2001-01-01 23:55:41.601 +0000,,,,0.018158,-0.43605,-0.923874,1.021769,107129.9335,2001-01-02 05:45:29.934 +0000,,,,-74.96462
-0.003344,0.226956,0.021799,0.228025,86141.59137,2001-01-01 23:55:41.591 +0000,,,,0.014023,-0.425049,-0.940887,1.032537,107129.9238,2001-01-02 05:45:29.924 +0000,,,,-74.967964
-0.125724,0.799036,0.06857,0.811767,86141.58139,2001-01-01 23:55:41.581 +0000,,,,0.012802,-0.399689,-0.942963,1.024253,107129.914,2001-01-02 05:45:29.914 +0000,,,,-75.093688
-0.243376,1.102565,0.073362,1.131487,86141.57138,2001-01-01 23:55:41.571 +0000,,,,0.009521,-0.387772,-0.937927,1.01497,107129.9042,2001-01-02 05:45:29.904 +0000,,,,-75.337064
-0.338134,1.104579,0.054552,1.156462,86141.5614,2001-01-01 23:55:41.561 +0000,,,,0.015167,-0.390625,-0.92247,1.001883,107129.8944,2001-01-02 05:45:29.894 +0000,,,,-75.675198
-0.398542,0.840283,0.029219,0.930465,86141.55142,2001-01-01 23:55:41.551 +0000,,,,0.022842,-0.39212,-0.913193,0.994083,107129.8846,2001-01-02 05:45:29.885 +0000,,,,-76.07374
-0.401347,0.353366,-0.004737,0.534761,86141.54145,2001-01-01 23:55:41.541 +0000,,,,0.025742,-0.396149,-0.916367,0.998661,107129.8748,2001-01-02 05:45:29.875 +0000,,,,-76.475087
-0.327709,-0.282659,-0.048458,0.435474,86141.53144,2001-01-01 23:55:41.531 +0000,,,,0.018433,-0.404602,-0.926163,1.010851,107129.865,2001-01-02 05:45:29.865 +0000,,,,-76.802796
-0.209293,-0.932477,-0.08329,0.959299,86141.52146,2001-01-01 23:55:41.521 +0000,,,,0.012024,-0.409973,-0.928909,1.015429,107129.8552,2001-01-02 05:45:29.855 +0000,,,,-77.012089
-0.12721,-1.361764,-0.099734,1.371325,86141.51148,2001-01-01 23:55:41.511 +0000,,,,0.003815,-0.416031,-0.928345,1.01731,107129.8454,2001-01-02 05:45:29.845 +0000,,,,-77.139299
-0.141838,-1.449077,-0.079294,1.458159,86141.5015,2001-01-01 23:55:41.501 +0000,,,,-0.005356,-0.41832,-0.917435,1.008319,107129.8356,2001-01-02 05:45:29.836 +0000,,,,-77.281137
-0.20467,-1.07934,-0.026229,1.098887,86141.49149,2001-01-01 23:55:41.491 +0000,,,,-0.005264,-0.409714,-0.895447,0.984743,107129.8258,2001-01-02 05:45:29.826 +0000,,,,-77.485807
-0.23466,-0.451767,0.032768,0.51013,86141.48151,2001-01-01 23:55:41.482 +0000,,,,0.001953,-0.406006,-0.88414,0.972907,107129.816,2001-01-02 05:45:29.816 +0000,,,,-77.720467
-0.219148,0.075595,0.048536,0.236846,86141.47153,2001-01-01 23:55:41.472 +0000,,,,0.005005,-0.405151,-0.884811,0.973172,107129.8062,2001-01-02 05:45:29.806 +0000,,,,-77.939615
-0.171945,0.282199,0.010895,0.330636,86141.46155,2001-01-01 23:55:41.462 +0000,,,,0.007599,-0.414719,-0.88298,0.975553,107129.7964,2001-01-02 05:45:29.796 +0000,,,,-78.11156
-0.096488,0.1607,-0.034212,0.190539,86141.45154,2001-01-01 23:55:41.452 +0000,,,,0.010544,-0.428452,-0.881699,0.980344,107129.7866,2001-01-02 05:45:29.787 +0000,,,,-78.208048
-0.021366,-0.11845,-0.075687,0.142181,86141.44156,2001-01-01 23:55:41.442 +0000,,,,0.011169,-0.444748,-0.880295,0.986329,107129.7768,2001-01-02 05:45:29.777 +0000,,,,-78.229414
0.04182,-0.397522,-0.081981,0.408036,86141.43158,2001-01-01 23:55:41.432 +0000,,,,0.014099,-0.458771,-0.883118,0.995272,107129.767,2001-01-02 05:45:29.767 +0000,,,,-78.187594
0.056541,-0.584987,-0.077098,0.592749,86141.4216,2001-01-01 23:55:41.422 +0000,,,,0.018524,-0.468552,-0.889557,1.005582,107129.7572,2001-01-02 05:45:29.757 +0000,,,,-78.131053
0.053192,-0.578548,-0.056837,0.583761,86141.41159,2001-01-01 23:55:41.412 +0000,,,,0.025833,-0.476746,-0.904984,1.023205,107129.7474,2001-01-02 05:45:29.747 +0000,,,,-78.077861
0.041286,-0.364341,-0.019033,0.367167,86141.40161,2001-01-01 23:55:41.402 +0000,,,,0.029602,-0.484436,-0.921066,1.041114,107129.7376,2001-01-02 05:45:29.738 +0000,,,,-78.036575
0.022426,-0.025518,0.013043,0.03639,86141.39163,2001-01-01 23:55:41.392 +0000,,,,0.029953,-0.490555,-0.936829,1.057917,107129.7278,2001-01-02 05:45:29.728 +0000,,,,-78.014149
-0.003452,0.257832,0.015304,0.258309,86141.38166,2001-01-01 23:55:41.382 +0000,,,,0.026642,-0.488541,-0.943451,1.062771,107129.718,2001-01-02 05:45:29.718 +0000,,,,-78.017601
-0.043438,0.394117,-0.001364,0.396506,86141.37165,2001-01-01 23:55:41.372 +0000,,,,0.030289,-0.475281,-0.944168,1.057479,107129.7082,2001-01-02 05:45:29.708 +0000,,,,-78.061039
-0.098832,0.390874,-0.003866,0.403194,86141.36167,2001-01-01 23:55:41.362 +0000,,,,0.027588,-0.451218,-0.938004,1.041254,107129.6984,2001-01-02 05:45:29.698 +0000,,,,-78.159871
-0.152143,0.373832,0.012916,0.403813,86141.35169,2001-01-01 23:55:41.352 +0000,,,,0.028183,-0.423157,-0.936066,1.027655,107129.6887,2001-01-02 05:45:29.689 +0000,,,,-78.312014
-0.17565,0.356829,0.036311,0.399373,86141.34171,2001-01-01 23:55:41.342 +0000,,,,0.020157,-0.40213,-0.941055,1.023572,107129.6789,2001-01-02 05:45:29.679 +0000,,,,-78.487664
-0.159552,0.32809,0.040772,0.3671,86141.3317,2001-01-01 23:55:41.332 +0000,,,,0.012909,-0.387558,-0.940842,1.01762,107129.6691,2001-01-02 05:45:29.669 +0000,,,,-78.647216
-0.102863,0.300406,0.029476,0.318894,86141.32172,2001-01-01 23:55:41.322 +0000,,,,0.005524,-0.377808,-0.933624,1.007186,107129.6593,2001-01-02 05:45:29.659 +0000,,,,-78.750079
-0.031111,0.279053,-0.010585,0.280981,86141.31174,2001-01-01 23:55:41.312 +0000,,,,-0.001114,-0.379242,-0.93248,1.00665,107129.6495,2001-01-02 05:45:29.649 +0000,,,,-78.78119
0.025697,0.274709,-0.06041,0.282444,86141.30176,2001-01-01 23:55:41.302 +0000,,,,-0.016449,-0.378433,-0.935608,1.009378,107129.6397,2001-01-02 05:45:29.640 +0000,,,,-78.755493
0.054615,0.285303,-0.092299,0.304795,86141.29175,2001-01-01 23:55:41.292 +0000,,,,-0.0271,-0.373856,-0.937241,1.009417,107129.6299,2001-01-02 05:45:29.630 +0000,,,,-78.700878
0.034312,0.324647,-0.114981,0.346112,86141.28177,2001-01-01 23:55:41.282 +0000,,,,-0.037399,-0.357986,-0.926682,0.994129,107129.6201,2001-01-02 05:45:29.620 +0000,,,,-78.666566
-0.002098,0.350208,-0.106749,0.366122,86141.27179,2001-01-01 23:55:41.272 +0000,,,,-0.052002,-0.344269,-0.911606,0.975833,107129.6103,2001-01-02 05:45:29.610 +0000,,,,-78.668664
-0.007652,0.35455,-0.072605,0.361989,86141.26181,2001-01-01 23:55:41.262 +0000,,,,-0.067017,-0.336258,-0.892197,0.955811,107129.6005,2001-01-02 05:45:29.601 +0000,,,,-78.676316
0.001961,0.293949,-0.027498,0.295239,86141.2518,2001-01-01 23:55:41.252 +0000,,,,-0.076477,-0.334229,-0.867523,0.93282,107129.5907,2001-01-02 05:45:29.591 +0000,,,,-78.674355
0.024787,0.169391,-0.00243,0.171212,86141.24182,2001-01-01 23:55:41.242 +0000,,,,-0.071823,-0.335342,-0.859573,0.925462,107129.5809,2001-01-02 05:45:29.581 +0000,,,,-78.649568
0.058776,-0.002148,-0.024173,0.063589,86141.23184,2001-01-01 23:55:41.232 +0000,,,,-0.058685,-0.337204,-0.865372,0.930601,107129.5711,2001-01-02 05:45:29.571 +0000,,,,-78.590792
0.111176,-0.20569,-0.069212,0.243841,86141.22187,2001-01-01 23:55:41.222 +0000,,,,-0.036285,-0.33194,-0.864853,0.927077,107129.5613,2001-01-02 05:45:29.561 +0000,,,,-78.479616
0.138653,-0.321901,-0.115726,0.369103,86141.21189,2001-01-01 23:55:41.212 +0000,,,,-0.014999,-0.322144,-0.873917,0.931521,107129.5515,2001-01-02 05:45:29.552 +0000,,,,-78.340963
0.116252,-0.296394,-0.133042,0.345056,86141.20188,2001-01-01 23:55:41.202 +0000,,,,0.007324,-0.323074,-0.895203,0.951745,107129.5417,2001-01-02 05:45:29.542 +0000,,,,-78.224711
0.037285,-0.102473,-0.093499,0.143641,86141.1919,2001-01-01 23:55:41.192 +0000,,,,0.020554,-0.343094,-0.943161,1.003837,107129.5319,2001-01-02 05:45:29.532 +0000,,,,-78.187426
-0.078523,0.180978,-0.024529,0.198798,86141.18192,2001-01-01 23:55:41.182 +0000,,,,0.016418,-0.3992,-1.020737,1.096145,107129.5221,2001-01-02 05:45:29.522 +0000,,,,-78.265949
-0.189749,0.422836,0.024283,0.464095,86141.17194,2001-01-01 23:55:41.172 +0000,,,,-0.022385,-0.449493,-1.010559,1.106244,107129.5123,2001-01-02 05:45:29.512 +0000,,,,-78.455698
-0.275387,0.496286,0.027779,0.568251,86141.16193,2001-01-01 23:55:41.162 +0000,,,,-0.038803,-0.438354,-0.971237,1.066284,107129.5025,2001-01-02 05:45:29.503 +0000,,,,-78.731085
-0.314016,0.373658,-0.009546,0.488178,86141.15195,2001-01-01 23:55:41.152 +0000,,,,-0.045319,-0.424225,-0.957336,1.0481,107129.4928,2001-01-02 05:45:29.493 +0000,,,,-79.045101
-0.313464,0.102941,-0.064369,0.336155,86141.14197,2001-01-01 23:55:41.142 +0000,,,,-0.027191,-0.397598,-0.952911,1.032891,107129.483,2001-01-02 05:45:29.483 +0000,,,,-79.358565
-0.307454,-0.232678,-0.08906,0.395725,86141.13199,2001-01-01 23:55:41.132 +0000,,,,-0.001968,-0.363724,-0.966522,1.032697,107129.4732,2001-01-02 05:45:29.473 +0000,,,,-79.666019
-0.31149,-0.527715,-0.070121,0.616787,86141.12198,2001-01-01 23:55:41.122 +0000,,,,-0.017487,-0.349442,-0.916794,0.981288,107129.4634,2001-01-02 05:45:29.463 +0000,,,,-79.977509
-0.334431,-0.700175,-0.01745,0.77614,86141.112,2001-01-01 23:55:41.112 +0000,,,,-0.027206,-0.350311,-0.856339,0.925621,107129.4536,2001-01-02 05:45:29.454 +0000,,,,-80.31194
-0.382936,-0.675531,0.053746,0.778377,86141.10202,2001-01-01 23:55:41.102 +0000,,,,-0.027405,-0.369568,-0.905457,0.978357,107129.4438,2001-01-02 05:45:29.444 +0000,,,,-80.694876
-0.415339,-0.424027,0.103064,0.602434,86141.09204,2001-01-01 23:55:41.092 +0000,,,,-0.033218,-0.372955,-0.887054,0.962842,107129.434,2001-01-02 05:45:29.434 +0000,,,,-81.110215
-0.372436,-0.045798,0.11301,0.391889,86141.08203,2001-01-01 23:55:41.082 +0000,,,,-0.038773,-0.380508,-0.891144,0.969756,107129.4242,2001-01-02 05:45:29.424 +0000,,,,-81.482651
-0.27902,0.280199,0.09459,0.406584,86141.07205,2001-01-01 23:55:41.072 +0000,,,,-0.052338,-0.388184,-0.895401,0.977327,107129.4144,2001-01-02 05:45:29.414 +0000,,,,-81.761671
-0.17891,0.337716,0.061985,0.387173,86141.06208,2001-01-01 23:55:41.062 +0000,,,,-0.052322,-0.388107,-0.921646,1.001397,107129.4046,2001-01-02 05:45:29.405 +0000,,,,-81.940581
-0.101291,0.21408,0.013694,0.23723,86141.0521,2001-01-01 23:55:41.052 +0000,,,,-0.034866,-0.381226,-0.932709,1.008213,107129.3948,2001-01-02 05:45:29.395 +0000,,,,-82.041872
-0.094424,-0.022577,-0.05507,0.111617,86141.04209,2001-01-01 23:55:41.042 +0000,,,,-0.029358,-0.390366,-0.918213,0.998179,107129.385,2001-01-02 05:45:29.385 +0000,,,,-82.136296
-0.169647,-0.274171,-0.108319,0.340122,86141.03211,2001-01-01 23:55:41.032 +0000,,,,-0.030823,-0.40239,-0.918106,1.002889,107129.3752,2001-01-02 05:45:29.375 +0000,,,,-82.305943
-0.275367,-0.440461,-0.120334,0.533211,86141.02213,2001-01-01 23:55:41.022 +0000,,,,-0.042908,-0.41507,-0.933456,1.02248,107129.3654,2001-01-02 05:45:29.365 +0000,,,,-82.58131
-0.395899,-0.461774,-0.087966,0.614581,86141.01215,2001-01-01 23:55:41.012 +0000,,,,-0.033936,-0.389877,-0.948059,1.025657,107129.3557,2001-01-02 05:45:29.356 +0000,,,,-82.977209
-0.487207,-0.358418,-0.051465,0.607028,86141.00214,2001-01-01 23:55:41.002 +0000,,,,-0.012619,-0.343933,-0.98764,1.045888,107129.3459,2001-01-02 05:45:29.346 +0000,,,,-83.464416
-0.488377,-0.124036,-0.042494,0.505671,86140.99216,2001-01-01 23:55:40.992 +0000,,,,-0.035629,-0.33989,-0.950958,1.010503,107129.3361,2001-01-02 05:45:29.336 +0000,,,,-83.952793
-0.418669,0.099544,-0.114221,0.445241,86140.98218,2001-01-01 23:55:40.982 +0000,,,,-0.040085,-0.323059,-0.896393,0.953674,107129.3263,2001-01-02 05:45:29.326 +0000,,,,-84.371462
-0.327688,0.18025,-0.243116,0.446066,86140.9722,2001-01-01 23:55:40.972 +0000,,,,-0.037888,-0.321213,-0.877243,0.93497,107129.3165,2001-01-02 05:45:29.316 +0000,,,,-84.69915
-0.209781,0.177933,-0.352371,0.447027,86140.96219,2001-01-01 23:55:40.962 +0000,,,,-0.045517,-0.333405,-0.863052,0.926331,107129.3067,2001-01-02 05:45:29.307 +0000,,,,-84.908931
-0.102603,0.109721,-0.397408,0.424852,86140.95221,2001-01-01 23:55:40.952 +0000,,,,-0.051315,-0.341736,-0.852356,0.919743,107129.2969,2001-01-02 05:45:29.297 +0000,,,,-85.011534
-0.086197,-0.030778,-0.355244,0.366845,86140.94223,2001-01-01 23:55:40.942 +0000,,,,-0.060333,-0.352386,-0.842255,0.914991,107129.2871,2001-01-02 05:45:29.287 +0000,,,,-85.097731
-0.092671,-0.144508,-0.251333,0.304366,86140.93225,2001-01-01 23:55:40.932 +0000,,,,-0.0737,-0.364609,-0.82991,0.909463,107129.2773,2001-01-02 05:45:29.277 +0000,,,,-85.190402
-0.048434,-0.166581,-0.145192,0.22622,86140.92224,2001-01-01 23:55:40.922 +0000,,,,-0.08078,-0.375168,-0.813416,0.8994,107129.2675,2001-01-02 05:45:29.268 +0000,,,,-85.238836
0.003172,-0.103558,-0.091589,0.138286,86140.91231,2001-01-01 23:55:40.912 +0000,,,,-0.082352,-0.383148,-0.832565,0.92019,107129.2577,2001-01-02 05:45:29.258 +0000,,,,-85.235664
0.049454,0.024311,-0.090556,0.106005,86140.90233,2001-01-01 23:55:40.902 +0000,,,,-0.075851,-0.387253,-0.861435,0.947517,107129.2479,2001-01-02 05:45:29.248 +0000,,,,-85.18621
0.09895,0.191513,-0.1238,0.248585,86140.89235,2001-01-01 23:55:40.892 +0000,,,,-0.041718,-0.391464,-0.887634,0.97102,107129.2381,2001-01-02 05:45:29.238 +0000,,,,-85.08726
0.181786,0.307583,-0.166297,0.394091,86140.88234,2001-01-01 23:55:40.882 +0000,,,,-0.05806,-0.375214,-0.89859,0.97551,107129.2283,2001-01-02 05:45:29.228 +0000,,,,-84.905474
0.285253,0.293804,-0.168767,0.442913,86140.87236,2001-01-01 23:55:40.872 +0000,,,,-0.026443,-0.379501,-0.875092,0.954204,107129.2186,2001-01-02 05:45:29.219 +0000,,,,-84.620221
0.393592,0.08628,-0.11832,0.41995,86140.86238,2001-01-01 23:55:40.862 +0000,,,,0.003967,-0.363327,-0.91333,0.982952,107129.2087,2001-01-02 05:45:29.209 +0000,,,,-84.226629
0.534197,-0.244667,-0.018169,0.587842,86140.85241,2001-01-01 23:55:40.852 +0000,,,,0.04512,-0.346481,-0.957764,1.019508,107129.1989,2001-01-02 05:45:29.199 +0000,,,,-83.692432
0.642396,-0.465954,0.066507,0.796372,86140.8424,2001-01-01 23:55:40.842 +0000,,,,0.092499,-0.323227,-1.040649,1.09361,107129.1892,2001-01-02 05:45:29.189 +0000,,,,-83.050036
0.626254,-0.457396,0.085608,0.780213,86140.83242,2001-01-01 23:55:40.832 +0000,,,,0.088516,-0.346527,-1.006989,1.068617,107129.1794,2001-01-02 05:45:29.179 +0000,,,,-82.423782
0.510317,-0.227494,0.040392,0.560186,86140.82244,2001-01-01 23:55:40.822 +0000,,,,0.037399,-0.366806,-0.904465,0.97673,107129.1696,2001-01-02 05:45:29.170 +0000,,,,-81.913465
0.406362,0.2005,-0.027721,0.453981,86140.81246,2001-01-01 23:55:40.812 +0000,,,,0.04866,-0.361481,-0.898224,0.969455,107129.1598,2001-01-02 05:45:29.160 +0000,,,,-81.507103
0.359868,0.641334,-0.090138,0.740905,86140.80245,2001-01-01 23:55:40.802 +0000,,,,0.056839,-0.368591,-0.915985,0.988999,107129.15,2001-01-02 05:45:29.150 +0000,,,,-81.147235
0.412036,0.909757,-0.11616,1.005448,86140.79247,2001-01-01 23:55:40.792 +0000,,,,0.059067,-0.385406,-0.952316,1.029045,107129.1402,2001-01-02 05:45:29.140 +0000,,,,-80.735199
0.693339,0.937638,-0.125022,1.172824,86140.78249,2001-01-01 23:55:40.782 +0000,,,,0.05629,-0.400192,-0.986313,1.065897,107129.1304,2001-01-02 05:45:29.130 +0000,,,,-80.04186
1.229536,0.685585,-0.115376,1.412479,86140.77251,2001-01-01 23:55:40.773 +0000,,,,0.047058,-0.413116,-1.006271,1.088789,107129.1206,2001-01-02 05:45:29.121 +0000,,,,-78.812324
1.769286,0.127816,-0.099532,1.776687,86140.7625,2001-01-01 23:55:40.762 +0000,,,,0.025711,-0.424713,-1.000229,1.086968,107129.1108,2001-01-02 05:45:29.111 +0000,,,,-77.043038
